HEADER,TIME_MS,SV_DRV,SV_STR,SV_STD,GY_ROLL,GY_YAW,GY_PITCH,ACC_X,ACC_Y,ACC_Z,SWP_SG,SV_POS
a,55080,0.000,8.213,36.000,0.280,0.038,0.506,2.194,9.364,2.248,8.213,11.821
a,55084,0.000,8.162,36.000,0.005,0.068,0.154,2.198,9.324,2.255,8.162,11.689
a,55087,0.000,8.110,36.000,0.097,-0.191,-0.792,2.210,9.348,2.247,8.110,11.689
a,55091,0.000,8.058,36.000,0.051,0.099,0.353,2.152,9.316,2.246,8.058,11.777
a,55095,0.000,8.005,36.000,0.158,0.023,-0.792,2.180,9.376,2.239,8.005,11.646
a,55099,0.000,7.951,36.000,0.097,0.191,-0.807,2.195,9.334,2.242,7.951,11.733
a,55103,0.000,7.897,36.000,0.234,-0.038,-0.197,2.201,9.357,2.216,7.897,11.733
a,55107,0.000,7.842,36.000,-0.117,-0.145,-1.052,2.188,9.373,2.219,7.842,13.799
a,55111,0.000,7.786,36.000,0.051,0.038,-0.136,2.235,9.384,2.258,7.786,15.864
a,55115,0.000,7.730,36.000,-0.010,-0.054,0.261,2.273,9.351,2.246,7.730,11.733
a,55119,0.000,7.673,36.000,-0.102,-0.420,0.154,2.108,9.439,2.217,7.673,11.646
a,55123,0.000,7.615,36.000,0.142,0.420,-0.533,2.158,9.268,2.307,7.615,11.689
a,55128,0.000,7.557,36.000,-0.163,-0.023,-0.395,2.233,9.422,2.116,7.557,11.689
a,55131,0.000,7.498,36.000,0.158,-0.283,-0.090,2.174,9.335,2.272,7.498,11.777
a,55135,0.000,7.439,36.000,0.051,-0.161,0.246,2.258,9.364,2.221,7.439,11.777
a,55139,0.000,7.378,36.000,0.081,-0.451,-1.723,2.105,9.355,2.265,7.378,11.689
a,55143,0.000,7.318,36.000,0.112,0.465,0.719,2.282,9.325,2.356,7.318,11.646
a,55147,0.000,7.256,36.000,-0.438,-0.069,-0.288,2.207,9.489,2.088,7.256,11.602
a,55151,0.000,7.194,36.000,0.371,-0.054,0.353,2.124,9.316,2.338,7.194,11.250
a,55155,0.000,7.132,36.000,-0.010,-0.237,-0.349,2.233,9.412,2.161,7.132,11.206
a,55160,0.000,7.068,36.000,0.341,0.511,-0.426,2.077,9.305,2.312,7.068,11.074
a,55164,0.000,7.004,36.000,0.158,0.252,0.124,2.254,9.401,2.170,7.004,10.854
a,55167,0.000,6.940,36.000,-0.255,-0.252,-0.181,2.282,9.328,2.249,6.940,10.986
a,55171,0.000,6.875,36.000,-0.071,-0.130,-1.159,2.139,9.340,2.253,6.875,10.503
a,55175,0.000,6.809,36.000,-0.316,-0.100,-0.212,2.139,9.363,2.242,6.809,10.459
a,55179,0.000,6.743,36.000,0.097,0.816,-0.685,2.059,9.340,2.292,6.743,10.459
a,55184,0.000,6.676,36.000,0.112,0.038,0.246,2.276,9.406,2.186,6.676,10.371
a,55188,0.000,6.609,36.000,-0.102,-0.344,0.368,2.272,9.355,2.261,6.609,10.415
a,55192,0.000,6.541,36.000,-0.178,-0.344,-0.609,2.101,9.351,2.201,6.541,10.459
a,55195,0.000,6.472,36.000,-0.026,0.084,-0.502,2.173,9.340,2.288,6.472,10.415
a,55199,0.000,6.403,36.000,-0.041,0.740,0.353,2.093,9.309,2.229,6.403,10.283
a,55203,0.000,6.333,36.000,0.234,0.267,0.887,2.308,9.376,2.224,6.333,10.327
a,55208,0.000,6.263,36.000,-0.606,-1.367,0.444,2.320,9.418,2.200,6.263,10.283
a,55212,0.000,6.192,36.000,0.005,-0.130,0.200,1.987,9.295,2.286,6.192,10.195
a,55215,0.000,6.121,36.000,0.448,1.076,0.261,2.040,9.325,2.296,6.121,10.854
a,55220,0.000,6.049,36.000,0.173,0.404,0.124,2.258,9.380,2.200,6.049,12.964
a,55223,0.000,5.976,36.000,-0.056,-0.802,-0.762,2.397,9.376,2.173,5.976,9.800
a,55227,0.000,5.903,36.000,-0.438,-1.229,-0.548,2.246,9.384,2.186,5.903,9.712
a,55231,0.000,5.830,36.000,0.158,0.694,-0.044,1.906,9.284,2.361,5.830,9.668
a,55235,0.000,5.756,36.000,0.448,1.351,1.147,2.087,9.370,2.247,5.756,9.624
a,55239,0.000,5.681,36.000,0.005,-0.115,1.345,2.506,9.400,2.174,5.681,9.624
a,55243,0.000,5.606,36.000,-0.392,-1.031,0.322,2.225,9.408,2.137,5.606,9.536
a,55247,0.000,5.530,36.000,0.051,-0.527,-0.685,2.049,9.275,2.342,5.530,9.536
a,55251,0.000,5.454,36.000,0.158,1.015,-0.227,2.011,9.370,2.258,5.454,9.536
a,55255,0.000,5.378,36.000,0.371,0.908,-0.273,2.264,9.376,2.215,5.378,9.580
a,55259,0.000,5.301,36.000,-0.331,-0.344,-0.456,2.351,9.398,2.252,5.301,9.536
a,55263,0.000,5.223,36.000,-0.239,-1.275,0.826,2.308,9.448,2.210,5.223,9.492
a,55268,0.000,5.145,36.000,-0.102,-0.435,0.109,2.024,9.370,2.273,5.145,9.141
a,55271,0.000,5.066,36.000,0.631,1.397,0.994,1.949,9.286,2.340,5.066,9.492
a,55275,0.000,4.987,36.000,0.051,1.091,0.536,2.279,9.389,2.201,4.987,9.492
a,55279,0.000,4.908,36.000,-0.209,-0.955,-0.059,2.394,9.385,2.188,4.908,9.492
a,55283,0.000,4.828,36.000,-0.346,-1.000,-0.487,2.217,9.341,2.189,4.828,9.492
a,55287,0.000,4.747,36.000,-0.056,-0.283,-0.288,2.048,9.325,2.288,4.747,9.536
a,55291,0.000,4.667,36.000,0.264,1.015,-0.227,2.040,9.369,2.255,4.667,14.062
a,55295,0.000,4.585,36.000,0.066,0.694,0.277,2.264,9.410,2.216,4.585,9.053
a,55299,0.000,4.503,36.000,-0.468,-1.275,0.933,2.437,9.438,2.184,4.503,9.009
a,55303,0.000,4.421,36.000,-0.331,-0.649,0.490,2.089,9.346,2.272,4.421,8.965
a,55307,0.000,4.339,36.000,0.158,0.358,-0.151,2.008,9.354,2.310,4.339,8.921
a,55312,0.000,4.256,36.000,0.173,0.954,0.597,2.142,9.324,2.289,4.256,8.833
a,55315,0.000,4.172,36.000,0.280,0.679,-0.380,2.301,9.348,2.201,4.172,8.350
a,55319,0.000,4.088,36.000,-0.407,-0.939,0.887,2.357,9.380,2.162,4.088,8.350
a,55323,0.000,4.004,36.000,-0.132,-0.832,-0.655,2.099,9.304,2.294,4.004,8.394
a,55328,0.000,3.920,36.000,0.051,0.374,0.383,2.012,9.335,2.230,3.920,8.218
a,55332,0.000,3.835,36.000,0.234,0.832,-0.273,2.158,9.270,2.260,3.835,7.690
a,55335,0.000,3.749,36.000,-0.148,0.038,0.521,2.326,9.339,2.173,3.749,8.042
a,55339,0.000,3.663,36.000,-0.529,-1.428,0.506,2.310,9.323,2.186,3.663,8.218
a,55344,0.000,3.577,36.000,-0.087,-0.619,0.826,2.070,9.347,2.302,3.577,7.646
a,55348,0.000,3.491,36.000,0.066,0.816,1.162,2.058,9.300,2.334,3.491,8.130
a,55352,0.000,3.404,36.000,1.654,5.076,-2.502,1.237,8.788,2.161,3.404,7.646
a,55355,0.000,3.317,36.000,1.990,0.145,0.826,2.898,8.250,1.349,3.317,7.515
a,55359,0.000,3.229,36.000,-1.736,-0.512,1.269,1.342,10.197,2.419,3.229,7.471
a,55363,0.000,3.141,36.000,0.707,-1.000,-0.349,2.510,9.020,3.358,3.141,7.383
a,55367,0.000,3.053,36.000,-1.323,0.969,0.460,1.968,9.552,1.245,3.053,6.943
a,55371,0.000,2.965,36.000,0.768,0.618,-0.319,1.993,9.414,2.070,2.965,7.031
a,55375,0.000,2.876,36.000,0.356,1.290,0.765,2.036,9.692,2.100,2.876,7.339
a,55379,0.000,2.787,36.000,0.524,-1.153,-1.327,2.049,9.268,2.295,2.787,6.855
a,55383,0.000,2.698,36.000,-0.071,0.145,-1.601,2.257,9.045,2.490,2.698,10.371
a,55387,0.000,2.608,36.000,0.005,0.206,0.353,1.891,9.600,1.878,2.608,6.855
a,55391,0.000,2.518,36.000,0.768,0.023,0.200,2.350,9.188,2.513,2.518,6.855
a,55396,0.000,2.428,36.000,-0.346,-0.451,-0.777,2.267,9.473,2.100,2.428,6.812
a,55399,0.000,2.337,36.000,-0.102,-0.176,0.643,2.320,9.327,2.449,2.337,6.899
a,55403,0.000,2.246,36.000,-0.056,0.145,-0.472,2.000,9.505,2.071,2.246,6.680
a,55408,0.000,2.155,36.000,-0.010,0.649,0.399,2.273,9.383,2.231,2.155,6.812
a,55412,0.000,2.064,36.000,0.051,-0.008,0.399,2.170,9.366,2.201,2.064,6.636
a,55415,0.000,1.973,36.000,-0.010,-0.298,-1.327,2.201,9.342,2.235,1.973,6.284
a,55419,0.000,1.881,36.000,-0.163,-0.512,-0.120,2.336,9.370,2.261,1.881,6.636
a,55423,0.000,1.789,36.000,0.081,0.420,-0.533,1.980,9.408,2.258,1.789,6.240
a,55427,0.000,1.697,36.000,0.341,0.618,-0.044,2.254,9.319,2.277,1.697,6.284
a,55432,0.000,1.604,36.000,-0.209,-0.466,0.032,2.233,9.493,2.120,1.604,6.240
a,55436,0.000,1.512,36.000,0.219,0.129,-0.640,2.158,9.313,2.325,1.512,6.021
a,55440,0.000,1.419,36.000,-0.148,-0.466,-0.014,2.254,9.421,2.188,1.419,6.108
a,55443,0.000,1.326,36.000,0.066,0.343,0.124,2.083,9.327,2.300,1.326,6.064
a,55447,0.000,1.233,36.000,-0.041,0.618,0.078,2.227,9.390,2.172,1.233,5.581
a,55451,0.000,1.140,36.000,-0.148,-0.084,-0.227,2.201,9.367,2.252,1.140,5.361
a,55455,0.000,1.046,36.000,0.005,0.191,0.017,2.099,9.319,2.255,1.046,5.273
a,55460,0.000,0.953,36.000,-0.331,-0.680,-0.869,2.351,9.363,2.255,0.953,4.746
a,55463,0.000,0.859,36.000,-0.209,-0.374,0.048,2.067,9.386,2.192,0.859,4.702
a,55468,0.000,0.765,36.000,0.356,0.801,0.887,2.112,9.377,2.277,0.765,4.790
a,55471,0.000,0.671,36.000,-0.117,0.587,-0.411,2.283,9.378,2.230,0.671,4.790
a,55475,0.000,0.577,36.000,-0.071,-0.237,-0.563,2.279,9.378,2.194,0.577,4.746
a,55479,0.000,0.483,36.000,-0.209,-0.634,0.170,2.236,9.371,2.254,0.483,4.790
a,55483,0.000,0.389,36.000,0.097,0.374,0.551,2.089,9.361,2.221,0.389,4.702
a,55487,0.000,0.294,36.000,0.234,0.450,-0.426,2.137,9.342,2.264,0.294,4.746
a,55491,0.000,0.200,36.000,0.173,0.465,0.612,2.251,9.391,2.201,0.200,4.746
a,55495,0.000,0.105,36.000,0.005,-0.115,0.857,2.225,9.303,2.215,0.105,4.658
a,55499,0.000,0.011,36.000,-0.056,-0.008,0.307,2.235,9.346,2.224,0.011,4.526
a,55503,0.000,-0.084,36.000,-0.132,-0.451,-0.884,2.163,9.374,2.189,-0.084,4.131
a,55507,0.000,-0.179,36.000,0.173,0.252,0.612,2.077,9.330,2.308,-0.179,4.043
a,55511,0.000,-0.274,36.000,-0.194,0.526,1.345,2.210,9.384,2.216,-0.274,4.131
a,55515,0.000,-0.368,36.000,-0.026,0.145,-0.960,2.215,9.361,2.218,-0.368,4.043
a,55519,0.000,-0.463,36.000,-0.071,-0.283,-0.670,2.248,9.394,2.198,-0.463,4.131
a,55524,0.000,-0.558,36.000,-0.239,-0.512,-0.502,2.186,9.329,2.288,-0.558,3.999
a,55527,0.000,-0.653,36.000,0.326,0.206,-0.105,2.079,9.352,2.242,-0.653,4.131
a,55531,0.000,-0.748,36.000,0.051,0.313,0.124,2.192,9.366,2.269,-0.748,4.131
a,55535,0.000,-0.843,36.000,0.081,0.206,-1.510,2.241,9.364,2.243,-0.843,3.999
a,55539,0.000,-0.938,36.000,0.005,-0.726,0.215,2.404,9.468,2.207,-0.938,3.999
a,55543,0.000,-1.032,36.000,-0.499,-0.787,-0.273,2.043,9.479,2.243,-1.032,4.834
a,55547,0.000,-1.127,36.000,0.539,1.076,-0.166,1.996,9.290,2.361,-1.127,3.867
a,55551,0.000,-1.222,36.000,-0.102,0.038,0.582,2.332,9.439,2.166,-1.222,3.867
a,55555,0.000,-1.316,36.000,0.158,0.267,0.612,2.199,9.349,2.297,-1.316,3.428
a,55559,0.000,-1.411,36.000,0.005,-0.100,-0.273,2.213,9.360,2.144,-1.411,3.428
a,55564,0.000,-1.506,36.000,-0.148,-0.435,0.811,2.133,9.340,2.266,-1.506,3.296
a,55567,0.000,-1.600,36.000,0.661,1.290,0.704,1.945,9.166,2.252,-1.600,3.164
a,55571,0.000,-1.694,36.000,-0.071,-0.405,-0.609,2.453,9.437,2.144,-1.694,2.725
a,55575,0.000,-1.789,36.000,-0.377,-1.000,0.383,2.189,9.318,2.283,-1.789,2.725
a,55579,0.000,-1.883,36.000,0.326,0.297,-0.975,2.005,9.290,2.271,-1.883,2.593
a,55583,0.000,-1.977,36.000,-0.010,0.358,-0.090,2.276,9.413,2.255,-1.977,2.593
a,55588,0.000,-2.071,36.000,0.173,0.175,-0.197,2.173,9.391,2.192,-2.071,2.593
a,55592,0.000,-2.165,36.000,0.005,-0.527,-0.120,2.338,9.371,2.249,-2.165,2.681
a,55596,0.000,-2.258,36.000,-0.163,-0.252,-0.945,2.205,9.371,2.245,-2.258,2.681
a,55599,0.000,-2.352,36.000,-0.041,0.129,-0.029,2.043,9.347,2.296,-2.352,2.549
a,55603,0.000,-2.445,36.000,0.051,0.297,-1.571,2.242,9.378,2.221,-2.445,2.461
a,55607,0.000,-2.538,36.000,0.112,-0.145,-0.090,2.174,9.402,2.175,-2.538,2.505
a,55611,0.000,-2.631,36.000,0.158,-0.054,0.399,2.291,9.358,2.282,-2.631,2.681
a,55615,0.000,-2.724,36.000,-0.285,-0.451,-0.502,2.184,9.467,2.195,-2.724,2.505
a,55620,0.000,-2.817,36.000,0.173,0.725,-0.105,2.075,9.291,2.313,-2.817,2.417
a,55624,0.000,-2.909,36.000,-0.056,0.221,0.567,2.282,9.415,2.163,-2.909,1.890
a,55627,0.000,-3.001,36.000,0.158,0.236,-1.571,2.143,9.284,2.267,-3.001,1.802
a,55632,0.000,-3.093,36.000,-0.148,0.129,-0.411,2.272,9.319,2.178,-3.093,1.187
a,55636,0.000,-3.185,36.000,-0.728,-0.832,-0.823,2.326,9.389,2.230,-3.185,1.274
a,55639,0.000,-3.277,36.000,0.158,0.374,0.551,1.950,9.335,2.274,-3.277,1.143
a,55643,0.000,-3.368,36.000,0.219,0.679,-1.189,2.133,9.378,2.298,-3.368,1.055
a,55647,0.000,-3.459,36.000,0.219,0.145,-0.151,2.322,9.354,2.247,-3.459,1.143
a,55651,0.000,-3.550,36.000,-0.010,-0.558,-0.395,2.235,9.378,2.142,-3.550,0.703
a,55655,0.000,-3.640,36.000,-0.148,-0.664,0.597,2.273,9.366,2.292,-3.640,1.143
a,55659,0.000,-3.730,36.000,-0.132,0.358,-0.792,2.008,9.355,2.223,-3.730,0.703
a,55663,0.000,-3.820,36.000,0.264,0.587,-0.151,2.143,9.347,2.297,-3.820,0.703
a,55667,0.000,-3.910,36.000,-0.270,0.206,-0.365,2.301,9.397,2.195,-3.910,0.703
a,55671,0.000,-3.999,36.000,-0.163,-0.649,-1.342,2.211,9.351,2.239,-3.999,0.703
a,55675,0.000,-4.088,36.000,-0.010,-0.206,-0.701,2.149,9.358,2.294,-4.088,0.659
a,55679,0.000,-4.176,36.000,-0.056,0.099,0.261,2.188,9.397,2.242,-4.176,0.615
a,55683,0.000,-4.265,36.000,0.219,-0.038,-0.853,2.133,9.421,2.197,-4.265,0.527
a,55687,0.000,-4.352,36.000,0.142,0.526,-0.701,2.130,9.354,2.328,-4.352,2.637
a,55692,0.000,-4.440,36.000,-0.010,-0.008,0.261,2.258,9.347,2.194,-4.440,0.439
a,55695,0.000,-4.527,36.000,-0.224,-0.909,-0.930,2.355,9.439,2.236,-4.527,0.396
a,55699,0.000,-4.614,36.000,-0.377,-0.329,1.406,2.093,9.389,2.240,-4.614,-0.044
a,55703,0.000,-4.700,36.000,0.616,0.633,0.170,2.033,9.349,2.290,-4.700,-0.132
a,55707,0.000,-4.786,36.000,0.066,0.420,0.612,2.283,9.427,2.229,-4.786,0.000
a,55711,0.000,-4.872,36.000,0.264,-0.176,-0.411,2.221,9.446,2.234,-4.872,-0.132
a,55716,0.000,-4.957,36.000,-0.117,-0.909,-1.250,2.345,9.385,2.192,-4.957,-0.088
a,55719,0.000,-5.042,36.000,-0.117,-0.451,-0.014,2.040,9.374,2.231,-5.042,-0.132
a,55723,0.000,-5.126,36.000,0.509,1.183,1.910,1.978,9.246,2.334,-5.126,-0.088
a,55727,0.000,-5.210,36.000,-0.316,-0.161,1.193,2.450,9.412,2.138,-5.210,-0.220
a,55731,0.000,-5.294,36.000,0.005,-0.252,-0.456,2.158,9.310,2.277,-5.294,-0.791
a,55735,0.000,-5.377,36.000,0.097,-0.008,0.628,2.176,9.293,2.207,-5.377,-1.055
a,55740,0.000,-5.459,36.000,-0.652,-0.802,-1.464,2.339,9.454,2.229,-5.459,-1.406
a,55744,0.000,-5.541,36.000,0.203,0.526,-0.533,1.921,9.251,2.301,-5.541,-1.099
a,55747,0.000,-5.623,36.000,0.234,0.297,-0.380,2.264,9.413,2.206,-5.623,-1.055
a,55751,0.000,-5.704,36.000,-0.117,-0.054,0.200,2.319,9.347,2.230,-5.704,-1.099
a,55755,0.000,-5.784,36.000,0.020,-0.023,0.979,2.161,9.321,2.216,-5.784,-1.494
a,55759,0.000,-5.864,36.000,-0.255,-0.435,0.979,2.260,9.389,2.271,-5.864,-1.055
a,55763,0.000,-5.944,36.000,0.020,0.313,1.177,2.073,9.327,2.260,-5.944,-1.099
a,55768,0.000,-6.023,36.000,0.264,0.374,0.612,2.215,9.366,2.258,-6.023,-1.055
a,55772,0.000,-6.101,36.000,-0.209,-0.130,0.261,2.292,9.398,2.223,-6.101,-1.055
a,55775,0.000,-6.179,36.000,-0.224,-0.268,0.414,2.168,9.343,2.218,-6.179,-1.055
a,55780,0.000,-6.257,36.000,-0.148,0.023,-0.181,2.210,9.364,2.265,-6.257,-1.011
a,55783,0.000,-6.333,36.000,0.081,0.038,1.025,2.101,9.373,2.210,-6.333,-1.011
a,55787,0.000,-6.410,36.000,0.005,0.313,0.628,2.198,9.359,2.267,-6.410,-0.967
a,55791,0.000,-6.485,36.000,-0.209,0.038,0.200,2.273,9.414,2.206,-6.485,0.527
a,55795,0.000,-6.560,36.000,-0.224,-0.466,-0.609,2.260,9.446,2.241,-6.560,-1.494
a,55799,0.000,-6.635,36.000,-0.255,-0.130,0.368,2.061,9.373,2.206,-6.635,-1.494
a,55803,0.000,-6.709,36.000,0.341,0.191,-2.548,2.118,9.333,2.277,-6.709,1.143
a,55807,0.000,-6.782,36.000,-0.239,-0.405,-0.502,2.326,9.395,2.213,-6.782,-1.626
a,55811,0.000,-6.855,36.000,-0.194,-0.023,0.979,2.108,9.293,2.271,-6.855,3.076
a,55815,0.000,-6.927,36.000,0.219,0.404,-0.975,2.180,9.295,2.185,-6.927,-2.285
a,55819,0.000,-6.998,36.000,-0.056,-0.726,-0.273,2.406,9.404,2.182,-6.998,-2.417
a,55824,0.000,-7.069,36.000,0.051,-0.176,-0.243,1.985,9.290,2.301,-7.069,-2.461
a,55827,0.000,-7.139,36.000,0.203,0.587,-0.701,2.161,9.352,2.236,-7.139,-2.505
a,55831,0.000,-7.208,36.000,0.066,0.374,1.819,2.260,9.355,2.213,-7.208,-2.461
a,55835,0.000,-7.277,36.000,-0.010,-0.420,-1.098,2.251,9.359,2.248,-7.277,-2.417
a,55839,0.000,-7.345,36.000,-0.331,-0.680,-0.869,2.257,9.382,2.225,-7.345,-2.856
a,55843,0.000,-7.412,36.000,-0.163,-0.008,0.200,2.106,9.336,2.247,-7.412,-2.461
a,55847,0.000,-7.479,36.000,0.264,0.145,0.063,2.139,9.354,2.252,-7.479,-2.549
a,55851,0.000,-7.545,36.000,-0.163,0.084,-0.014,2.277,9.390,2.201,-7.545,-2.812
a,55855,0.000,-7.610,36.000,-0.041,-0.237,0.521,2.235,9.345,2.197,-7.610,-2.505
a,55860,0.000,-7.674,36.000,0.280,-0.558,0.292,2.213,9.380,2.233,-7.674,-2.461
a,55864,0.000,-7.738,36.000,-0.102,0.084,0.368,2.112,9.339,2.241,-7.738,-2.461
a,55867,0.000,-7.801,36.000,0.066,0.420,0.338,2.157,9.305,2.260,-7.801,-2.505
a,55872,0.000,-7.863,36.000,-0.102,0.236,-0.243,2.279,9.384,2.192,-7.863,-2.505
a,55875,0.000,-7.925,36.000,-0.270,-0.298,-0.670,2.241,9.371,2.233,-7.925,-2.197
a,55879,0.000,-7.986,36.000,-0.010,0.099,0.521,2.151,9.336,2.253,-7.986,-2.417
a,55883,0.000,-8.046,36.000,-0.041,0.068,-0.456,2.219,9.464,2.273,-8.046,-2.549
a,55888,0.000,-8.105,36.000,-0.056,0.328,0.460,2.137,9.378,2.213,-8.105,-2.944
a,55892,0.000,-8.163,36.000,0.051,0.206,-0.212,2.217,9.329,2.301,-8.163,-2.900
a,55895,0.000,-8.221,36.000,-0.239,-0.344,-0.563,2.254,9.437,2.174,-8.221,-3.032
a,55899,0.000,-8.278,36.000,0.326,0.206,-0.105,2.164,9.337,2.261,-8.278,-3.076
a,55903,0.000,-8.334,36.000,-0.102,0.221,-0.075,2.186,9.336,2.236,-8.334,-3.076
a,55907,0.000,-8.389,36.000,0.173,0.068,0.261,2.221,9.315,2.233,-8.389,-3.120
a,55912,0.000,-8.444,36.000,-0.117,-0.405,-0.227,2.211,9.336,2.189,-8.444,-3.604
a,55915,0.000,-8.497,36.000,-0.178,-0.130,-0.853,2.205,9.382,2.258,-8.497,-3.560
a,55920,0.000,-8.550,36.000,0.158,0.694,-0.426,2.075,9.298,2.274,-8.550,-3.604
a,55924,0.000,-8.602,36.000,0.158,0.435,0.719,2.186,9.346,2.213,-8.602,-3.164
a,55927,0.000,-8.653,36.000,-0.041,-0.069,0.368,2.313,9.370,2.241,-8.653,-3.604
a,55931,0.000,-8.703,36.000,-0.087,-0.405,1.086,2.167,9.379,2.216,-8.703,-3.560
a,55935,0.000,-8.753,36.000,-0.102,-0.084,-0.456,2.077,9.373,2.309,-8.753,-3.647
a,55939,0.000,-8.801,36.000,-0.041,-0.038,0.032,2.270,9.436,2.225,-8.801,-3.735
a,55943,0.000,-8.849,36.000,-0.270,-0.222,0.628,2.188,9.394,2.163,-8.849,-3.823
a,55947,0.000,-8.896,36.000,0.219,0.328,0.383,2.126,9.333,2.332,-8.896,-3.735
a,55951,0.000,-8.942,36.000,-0.255,0.267,0.796,2.229,9.389,2.192,-8.942,-3.735
a,55955,0.000,-8.987,36.000,0.310,0.206,-0.746,2.192,9.327,2.247,-8.987,-3.735
a,55959,0.000,-9.031,36.000,0.234,-0.084,-0.090,2.199,9.390,2.227,-9.031,-3.735
a,55963,0.000,-9.074,36.000,-0.209,-0.344,0.521,2.179,9.349,2.245,-9.074,-3.735
a,55967,0.000,-9.116,36.000,-0.010,0.068,-1.372,2.118,9.352,2.233,-9.116,-3.779
a,55971,0.000,-9.157,36.000,-0.148,0.068,0.154,2.225,9.364,2.227,-9.157,-3.735
a,55976,0.000,-9.198,36.000,-0.255,-0.145,-0.120,2.239,9.353,2.233,-9.198,-3.779
a,55979,0.000,-9.237,36.000,-0.010,0.252,-0.411,2.168,9.364,2.195,-9.237,-2.153
a,55983,0.000,-9.276,36.000,0.173,-0.222,1.025,2.277,9.331,2.207,-9.276,-3.955
a,55987,0.000,-9.314,36.000,-0.163,-0.619,-0.334,2.194,9.456,2.209,-9.314,-4.307
a,55991,0.000,-9.350,36.000,0.158,0.297,-0.640,2.120,9.363,2.304,-9.350,-4.219
a,55995,0.000,-9.386,36.000,0.051,0.023,-1.067,2.143,9.400,2.192,-9.386,-4.263
a,55999,0.000,-9.421,36.000,0.112,0.511,0.002,2.158,9.357,2.252,-9.421,-4.307
a,56003,0.000,-9.454,36.000,-0.102,-0.359,-0.075,2.338,9.433,2.173,-9.454,-4.395
a,56008,0.000,-9.487,36.000,-0.285,-0.451,-1.265,2.120,9.352,2.253,-9.487,-3.911
a,56012,0.000,-9.519,36.000,0.234,0.221,1.009,2.101,9.347,2.215,-9.519,-4.307
a,56015,0.000,-9.550,36.000,-0.117,0.358,-0.136,2.210,9.358,2.253,-9.550,-4.307
a,56020,0.000,-9.580,36.000,-0.041,0.191,-0.136,2.188,9.339,2.201,-9.580,-4.307
a,56023,0.000,-9.609,36.000,-0.102,-0.145,0.154,2.219,9.391,2.206,-9.609,-4.395
a,56027,0.000,-9.637,36.000,-0.270,-0.741,-1.357,2.334,9.416,2.236,-9.637,-4.351
a,56031,0.000,-9.664,36.000,-0.224,0.053,0.521,1.950,9.347,2.217,-9.664,-4.570
a,56036,0.000,-9.690,36.000,0.616,1.336,0.154,2.085,9.269,2.319,-9.690,-4.526
a,56040,0.000,-9.715,36.000,-0.071,-0.558,-0.777,2.460,9.343,2.137,-9.715,-4.614
a,56044,0.000,-9.738,36.000,-0.346,-0.237,-0.502,2.102,9.343,2.195,-9.738,-4.966
a,56048,0.000,-9.761,36.000,0.341,0.297,-0.426,2.077,9.335,2.292,-9.761,-4.966
a,56051,0.000,-9.783,36.000,-0.071,0.420,-1.174,2.189,9.394,2.240,-9.783,-5.010
a,56055,0.000,-9.804,36.000,0.280,0.374,0.780,2.254,9.340,2.230,-9.804,-5.010
a,56059,0.000,-9.824,36.000,-0.163,-0.802,-0.823,2.279,9.436,2.162,-9.824,-4.966
a,56063,0.000,-9.843,36.000,-0.117,-0.237,-0.075,2.127,9.354,2.242,-9.843,-5.054
a,56067,0.000,-9.860,36.000,0.097,0.267,0.475,2.058,9.348,2.234,-9.860,-4.966
a,56072,0.000,-9.877,36.000,0.264,0.862,0.322,2.192,9.351,2.286,-9.877,-5.010
a,56076,0.000,-9.893,36.000,-0.163,-0.069,-0.227,2.298,9.418,2.179,-9.893,-5.010
a,56079,0.000,-9.907,36.000,-0.224,-0.527,-1.327,2.245,9.348,2.239,-9.907,-5.054
a,56084,0.000,-9.921,36.000,-0.087,-0.344,0.872,2.176,9.363,2.229,-9.921,-5.054
a,56087,0.000,-9.933,36.000,0.081,0.206,-0.594,2.101,9.337,2.252,-9.933,-5.010
a,56091,0.000,-9.945,36.000,0.448,0.572,-0.380,2.198,9.363,2.248,-9.945,-4.922
a,56095,0.000,-9.955,36.000,-0.117,-0.069,-0.395,2.304,9.384,2.194,-9.955,-4.966
a,56099,0.000,-9.964,36.000,-0.209,-0.451,0.414,2.215,9.392,2.242,-9.964,-4.966
a,56103,0.000,-9.973,36.000,-0.026,-0.237,-0.792,2.118,9.371,2.234,-9.973,-4.614
a,56107,0.000,-9.980,36.000,0.005,0.511,-0.304,2.116,9.379,2.252,-9.980,-4.966
a,56111,0.000,-9.986,36.000,0.280,0.358,0.444,2.199,9.345,2.239,-9.986,-5.010
a,56115,0.000,-9.991,36.000,-0.056,-0.084,-1.433,2.289,9.378,2.242,-9.991,-4.966
a,56119,0.000,-9.995,36.000,-0.224,-0.405,-0.349,2.179,9.364,2.249,-9.995,-5.010
a,56124,0.000,-9.998,36.000,-0.224,-0.038,-1.098,2.126,9.364,2.265,-9.998,-4.922
a,56127,0.000,-9.999,36.000,-0.102,0.206,0.628,2.142,9.325,2.265,-9.999,-5.054
a,56131,0.000,-10.000,36.000,0.081,0.145,-0.640,2.211,9.366,2.231,-10.000,-4.570
a,56135,0.000,-10.000,36.000,-0.117,-0.435,0.368,2.266,9.390,2.215,-10.000,-5.010
a,56140,0.000,-9.998,36.000,-0.346,-0.023,-0.609,2.192,9.360,2.265,-9.998,-4.614
a,56143,0.000,-9.996,36.000,0.081,0.206,-0.594,2.127,9.335,2.249,-9.996,-4.570
a,56147,0.000,-9.992,36.000,0.051,0.267,0.277,2.179,9.372,2.236,-9.992,-5.010
a,56151,0.000,-9.987,36.000,0.066,0.129,0.124,2.245,9.385,2.223,-9.987,-4.570
a,56155,0.000,-9.981,36.000,-0.163,-0.252,-0.838,2.254,9.365,2.225,-9.981,-5.010
a,56159,0.000,-9.974,36.000,0.112,-0.191,-0.243,2.186,9.355,2.239,-9.974,-4.966
a,56164,0.000,-9.966,36.000,-0.102,0.191,0.582,2.139,9.331,2.236,-9.966,-5.098
a,56168,0.000,-9.957,36.000,-0.010,0.267,0.353,2.194,9.374,2.227,-9.957,-4.966
a,56171,0.000,-9.947,36.000,0.005,-0.054,-0.105,2.264,9.384,2.242,-9.947,-4.570
a,56175,0.000,-9.935,36.000,0.066,-0.283,0.292,2.248,9.321,2.247,-9.935,-5.010
a,56179,0.000,-9.923,36.000,0.112,0.068,-0.197,2.198,9.379,2.254,-9.923,-4.966
a,56183,0.000,-9.909,36.000,0.005,0.297,-0.411,2.145,9.359,2.252,-9.909,-5.010
a,56188,0.000,-9.895,36.000,-0.163,0.191,-0.517,2.167,9.355,2.231,-9.895,-5.010
a,56192,0.000,-9.879,36.000,-0.132,-0.130,-1.265,2.217,9.370,2.224,-9.879,-5.010
a,56196,0.000,-9.862,36.000,0.020,-0.451,0.872,2.199,9.357,2.223,-9.862,-4.966
a,56199,0.000,-9.844,36.000,0.020,0.038,0.979,2.161,9.345,2.252,-9.844,-5.010
a,56203,0.000,-9.825,36.000,0.219,0.023,-1.113,2.168,9.363,2.264,-9.825,-4.966
a,56207,0.000,-9.805,36.000,0.264,0.145,0.124,2.227,9.376,2.221,-9.805,-5.010
a,56211,0.000,-9.783,36.000,-0.178,-0.069,-0.609,2.204,9.366,2.230,-9.783,-5.098
a,56215,0.000,-9.761,36.000,0.066,-0.038,0.078,2.167,9.365,2.210,-9.761,-4.966
a,56220,0.000,-9.737,36.000,-0.041,0.267,1.452,2.167,9.365,2.240,-9.737,-4.966
a,56224,0.000,-9.713,36.000,0.051,0.465,-0.212,2.173,9.386,2.231,-9.713,-4.966
a,56227,0.000,-9.687,36.000,-0.071,0.038,-0.838,2.207,9.378,2.246,-9.687,-5.054
a,56232,0.000,-9.660,36.000,-0.102,-0.038,-0.456,2.199,9.382,2.225,-9.660,-5.010
a,56235,0.000,-9.632,36.000,-0.102,0.099,1.040,2.199,9.372,2.236,-9.632,-4.570
a,56239,0.000,-9.603,36.000,-0.132,-0.100,-1.861,2.182,9.348,2.249,-9.603,-5.010
a,56243,0.000,-9.573,36.000,0.097,0.084,-0.136,2.189,9.380,2.227,-9.573,-4.966
a,56247,0.000,-9.542,36.000,0.097,-0.145,-1.449,2.219,9.385,2.223,-9.542,-4.966
a,56251,0.000,-9.510,36.000,0.097,-0.161,0.185,2.213,9.378,2.230,-9.510,-5.010
a,56255,0.000,-9.476,36.000,-0.026,0.084,1.254,2.168,9.373,2.216,-9.476,-4.966
a,56259,0.000,-9.442,36.000,-0.010,0.068,-0.991,2.186,9.371,2.252,-9.442,-4.922
a,56263,0.000,-9.406,36.000,-0.163,0.084,-0.227,2.192,9.366,2.255,-9.406,-4.614
a,56267,0.000,-9.369,36.000,0.127,0.206,0.887,2.219,9.384,2.245,-9.369,-5.010
a,56271,0.000,-9.332,36.000,-0.010,-0.298,-0.716,2.225,9.380,2.216,-9.332,-5.054
a,56275,0.000,-9.293,36.000,0.066,-0.115,1.131,2.186,9.376,2.240,-9.293,-5.010
a,56279,0.000,-9.253,36.000,0.051,-0.038,-1.174,2.168,9.371,2.225,-9.253,-5.010
a,56283,0.000,-9.212,36.000,-0.087,0.084,1.086,2.198,9.369,2.254,-9.212,-4.966
a,56287,0.000,-9.170,36.000,-0.010,-0.145,-0.716,2.227,9.390,2.235,-9.170,-5.054
a,56292,0.000,-9.127,36.000,-0.010,-0.130,-0.349,2.207,9.366,2.236,-9.127,-4.966
a,56295,0.000,-9.082,36.000,0.066,0.023,-0.136,2.163,9.367,2.242,-9.082,-4.658
a,56299,0.000,-9.037,36.000,0.051,0.053,0.185,2.194,9.380,2.234,-9.037,-4.966
a,56303,0.000,-8.991,36.000,0.066,0.236,-0.151,2.233,9.404,2.241,-8.991,-5.010
a,56307,0.000,-8.943,36.000,-0.163,-0.222,0.368,2.186,9.358,2.227,-8.943,-4.922
a,56312,0.000,-8.895,36.000,-0.102,-0.038,0.032,2.195,9.377,2.231,-8.895,-4.966
a,56315,0.000,-8.845,36.000,-0.056,-0.054,0.307,2.155,9.366,2.227,-8.845,-5.010
a,56319,0.000,-8.795,36.000,-0.117,-0.069,-0.349,2.174,9.386,2.218,-8.795,-4.966
a,56323,0.000,-8.743,36.000,0.158,-0.283,-0.365,2.213,9.389,2.230,-8.743,-4.614
a,56328,0.000,-8.691,36.000,-0.132,-0.069,0.811,2.211,9.367,2.194,-8.691,-5.010
a,56331,0.000,-8.637,36.000,-0.117,0.053,0.261,2.201,9.409,2.230,-8.637,-5.010
a,56336,0.000,-8.582,36.000,0.188,-0.084,1.040,2.194,9.366,2.239,-8.582,-5.142
a,56340,0.000,-8.526,36.000,-0.010,0.023,-1.433,2.192,9.380,2.265,-8.526,-4.966
a,56343,0.000,-8.470,36.000,0.066,0.038,0.735,2.186,9.359,2.231,-8.470,-4.570
a,56347,0.000,-8.412,36.000,-0.209,-0.054,0.872,2.211,9.374,2.236,-8.412,-4.966
a,56351,0.000,-8.353,36.000,-0.056,-0.268,0.521,2.184,9.358,2.229,-8.353,-5.010
a,56355,0.000,-8.293,36.000,0.173,-0.023,0.246,2.194,9.382,2.236,-8.293,-5.010
a,56359,0.000,-8.232,36.000,0.066,-0.084,-0.090,2.215,9.378,2.225,-8.232,-5.098
a,56364,0.000,-8.171,36.000,0.066,0.191,-0.212,2.205,9.367,2.233,-8.171,-5.054
a,56367,0.000,-8.108,36.000,-0.209,-0.084,-0.227,2.211,9.342,2.231,-8.108,-5.010
a,56372,0.000,-8.044,36.000,-0.117,0.099,0.643,2.192,9.383,2.221,-8.044,-4.966
a,56376,0.000,-7.979,36.000,0.142,0.038,-0.960,2.170,9.347,2.234,-7.979,-4.966
a,56379,0.000,-7.913,36.000,0.097,-0.069,-0.029,2.205,9.389,2.253,-7.913,-5.054
a,56383,0.000,-7.847,36.000,0.173,-0.023,0.567,2.233,9.371,2.236,-7.847,-4.966
a,56387,0.000,-7.779,36.000,0.005,0.068,0.154,2.188,9.355,2.239,-7.779,-5.054
a,56391,0.000,-7.710,36.000,-0.224,0.099,0.628,2.195,9.365,2.237,-7.710,-5.054
a,56395,0.000,-7.641,36.000,-0.148,0.068,-0.456,2.168,9.345,2.231,-7.641,-4.966
a,56399,0.000,-7.570,36.000,0.112,-0.145,-0.304,2.211,9.378,2.248,-7.570,-4.966
a,56403,0.000,-7.499,36.000,0.112,-0.191,-0.197,2.204,9.400,2.223,-7.499,-4.966
a,56407,0.000,-7.426,36.000,0.020,-0.191,-2.365,2.182,9.349,2.231,-7.426,-5.010
a,56411,0.000,-7.353,36.000,-0.087,-0.130,1.849,2.195,9.380,2.219,-7.353,-5.054
a,56415,0.000,-7.279,36.000,-0.270,0.328,0.246,2.145,9.329,2.265,-7.279,-5.054
a,56419,0.000,-7.204,36.000,0.188,0.206,0.841,2.211,9.383,2.245,-7.204,-5.010
a,56424,0.000,-7.127,36.000,0.020,-0.023,1.528,2.239,9.334,2.150,-7.127,-5.054
a,56427,0.000,-7.051,36.000,0.051,-0.069,-0.472,2.198,9.392,2.292,-7.051,-4.482
a,56431,0.000,-6.973,36.000,-0.346,-0.664,-1.418,2.258,9.255,2.188,-6.973,-3.164
a,56435,0.000,-6.894,36.000,0.051,0.923,0.704,1.950,9.268,2.326,-6.894,-4.570
a,56439,0.000,-6.814,36.000,0.081,0.801,-0.869,2.267,9.403,2.189,-6.814,-4.526
a,56443,0.000,-6.734,36.000,-0.438,-0.771,0.215,2.470,9.412,2.207,-6.734,-4.482
a,56447,0.000,-6.653,36.000,0.158,-0.649,0.475,2.161,9.366,2.236,-6.653,-4.263
a,56451,0.000,-6.570,36.000,-0.148,-0.252,-0.349,2.064,9.391,2.331,-6.570,-3.867
a,56455,0.000,-6.487,36.000,0.829,1.198,0.933,2.033,9.340,2.249,-6.487,-3.867
a,56460,0.000,-6.404,36.000,-0.163,0.206,-0.411,2.428,9.372,2.173,-6.404,-3.691
a,56464,0.000,-6.319,36.000,-0.178,-0.664,-1.036,2.320,9.451,2.218,-6.319,-3.647
a,56467,0.000,-6.233,36.000,0.158,-0.573,-0.517,2.130,9.349,2.216,-6.233,-3.560
a,56471,0.000,-6.147,36.000,-0.010,0.038,0.032,2.110,9.419,2.243,-6.147,-3.516
a,56475,0.000,-6.060,36.000,0.280,0.816,1.116,2.046,9.322,2.345,-6.060,-3.516
a,56479,0.000,-5.972,36.000,0.203,0.084,-1.006,2.328,9.384,2.155,-5.972,-3.604
a,56484,0.000,-5.884,36.000,-0.117,-0.817,0.704,2.375,9.419,2.237,-5.884,-3.208
a,56488,0.000,-5.794,36.000,-0.026,-0.664,-1.464,2.101,9.318,2.243,-5.794,-3.252
a,56492,0.000,-5.704,36.000,0.081,0.587,-0.701,2.024,9.323,2.319,-5.704,-3.120
a,56495,0.000,-5.613,36.000,0.188,0.908,1.040,2.201,9.357,2.206,-5.613,-3.120
a,56499,0.000,-5.522,36.000,-0.026,-0.344,-0.624,2.376,9.357,2.231,-5.522,-0.264
a,56503,0.000,-5.429,36.000,-0.224,-1.077,-1.021,2.266,9.398,2.178,-5.429,-3.032
a,56507,0.000,-5.336,36.000,-0.056,-0.405,-0.288,2.061,9.336,2.292,-5.336,-2.988
a,56511,0.000,-5.242,36.000,-0.102,0.786,-0.243,2.087,9.446,2.239,-5.242,-2.856
a,56516,0.000,-5.148,36.000,0.478,0.908,-0.059,2.219,9.372,2.294,-5.148,-2.900
a,56519,0.000,-5.053,36.000,-0.377,-0.451,0.200,2.369,9.452,2.139,-5.053,-2.461
a,56524,0.000,-4.957,36.000,-0.224,-0.649,0.490,2.270,9.366,2.269,-4.957,-2.461
a,56528,0.000,-4.860,36.000,-0.209,0.099,1.147,2.033,9.358,2.217,-4.860,-2.329
a,56531,0.000,-4.763,36.000,0.219,0.725,-0.533,2.112,9.295,2.328,-4.763,-2.153
a,56535,0.000,-4.665,36.000,0.280,0.939,-0.120,2.142,9.359,2.289,-4.665,-1.758
a,56539,0.000,-4.567,36.000,-0.316,-0.359,-0.456,2.419,9.450,2.150,-4.567,-1.714
a,56543,0.000,-4.468,36.000,-0.102,-0.802,-0.273,2.246,9.333,2.277,-4.468,-1.714
a,56547,0.000,-4.368,36.000,-0.270,-0.145,-0.777,1.954,9.385,2.175,-4.368,-1.714
a,56551,0.000,-4.268,36.000,0.173,0.710,0.780,2.242,9.268,2.380,-4.268,-1.714
a,56555,0.000,-4.167,36.000,-0.117,0.328,0.628,2.149,9.392,2.110,-4.167,-1.714
a,56559,0.000,-4.065,36.000,0.264,0.099,0.185,2.326,9.360,2.309,-4.065,-1.670
a,56563,0.000,-3.963,36.000,-0.529,-1.321,0.719,2.328,9.439,2.157,-3.963,-1.626
a,56567,0.000,-3.860,36.000,-0.178,0.252,-0.624,1.909,9.364,2.295,-3.860,-1.538
a,56571,0.000,-3.757,36.000,0.509,1.397,1.147,2.054,9.359,2.340,-3.757,-1.406
a,56576,0.000,-3.654,36.000,0.097,0.618,-0.914,2.279,9.299,2.114,-3.654,-1.450
a,56579,0.000,-3.549,36.000,-0.270,-0.435,0.475,2.397,9.376,2.195,-3.549,-1.055
a,56583,0.000,-3.445,36.000,-0.636,-1.153,0.277,2.198,9.364,2.169,-3.445,-1.011
a,56587,0.000,-3.340,36.000,-0.010,0.221,0.292,1.927,9.258,2.334,-3.340,-0.396
a,56591,0.000,-3.234,36.000,0.478,1.198,0.704,2.152,9.376,2.209,-3.234,-0.439
a,56595,0.000,-3.128,36.000,-0.010,0.481,0.292,2.398,9.384,2.188,-3.128,-0.308
a,56599,0.000,-3.021,36.000,-0.270,-1.153,0.002,2.319,9.418,2.173,-3.021,-0.264
a,56603,0.000,-2.914,36.000,-0.224,-0.771,0.536,2.157,9.327,2.306,-2.914,-0.264
a,56608,0.000,-2.807,36.000,0.280,0.740,0.383,1.972,9.318,2.283,-2.807,-0.308
a,56611,0.000,-2.699,36.000,0.264,0.969,0.536,2.219,9.372,2.258,-2.699,-0.352
a,56615,0.000,-2.590,36.000,-0.102,-0.466,-0.227,2.447,9.422,2.173,-2.590,-0.264
a,56619,0.000,-2.482,36.000,-0.407,-1.214,-1.571,2.211,9.424,2.213,-2.482,-0.176
a,56624,0.000,-2.373,36.000,0.081,0.084,0.857,2.009,9.292,2.365,-2.373,-0.220
a,56627,0.000,-2.263,36.000,0.097,0.908,-0.441,2.101,9.366,2.195,-2.263,-0.088
a,56631,0.000,-2.153,36.000,0.173,-0.191,-0.197,2.385,9.392,2.219,-2.153,-0.176
a,56636,0.000,-2.043,36.000,-0.010,-0.283,-0.304,2.155,9.317,2.179,-2.043,-0.220
a,56640,0.000,-1.933,36.000,0.234,-0.084,-0.304,2.168,9.371,2.216,-1.933,-0.132
a,56643,0.000,-1.822,36.000,-0.026,0.313,1.070,2.174,9.294,2.286,-1.822,0.308
a,56647,0.000,-1.711,36.000,0.158,0.343,-1.617,2.118,9.377,2.206,-1.711,0.396
a,56651,0.000,-1.599,36.000,-0.270,-0.405,-0.349,2.270,9.394,2.259,-1.599,0.527
a,56655,0.000,-1.488,36.000,0.097,0.374,0.231,2.102,9.395,2.316,-1.488,0.659
a,56659,0.000,-1.376,36.000,0.051,-0.237,-0.304,2.264,9.446,2.179,-1.376,1.143
a,56664,0.000,-1.264,36.000,0.112,0.068,0.017,2.201,9.291,2.242,-1.264,1.230
a,56667,0.000,-1.151,36.000,-0.132,-0.130,-1.479,2.116,9.409,2.169,-1.151,1.274
a,56671,0.000,-1.039,36.000,0.112,0.129,-0.105,2.304,9.321,2.302,-1.039,1.318
a,56676,0.000,-0.926,36.000,-0.132,0.038,-0.777,2.192,9.418,2.151,-0.926,1.318
a,56679,0.000,-0.813,36.000,0.066,-0.130,0.735,2.194,9.404,2.298,-0.813,1.274
a,56683,0.000,-0.700,36.000,-0.209,-0.344,0.521,2.151,9.443,2.235,-0.700,1.714
a,56687,0.000,-0.587,36.000,0.417,0.694,-1.128,2.048,9.301,2.332,-0.587,1.758
a,56691,0.000,-0.473,36.000,-0.132,-0.176,-1.265,2.350,9.451,2.160,-0.473,1.846
a,56695,0.000,-0.359,36.000,-0.148,-0.832,0.429,2.248,9.364,2.210,-0.359,1.846
a,56699,0.000,-0.246,36.000,-0.102,-0.573,-0.120,2.090,9.333,2.213,-0.246,2.461
a,56703,0.000,-0.132,36.000,0.051,0.526,0.124,2.114,9.258,2.321,-0.132,1.978
a,56707,0.000,-0.018,36.000,0.432,0.862,0.322,2.136,9.398,2.186,-0.018,2.021
a,56711,0.000,0.096,36.000,-0.010,-0.466,-0.716,2.391,9.470,2.261,0.096,1.978
a,56715,0.000,0.210,36.000,-0.026,-0.664,-1.082,2.195,9.395,2.229,0.210,2.021
a,56719,0.000,0.324,36.000,-0.377,-0.420,-0.227,2.075,9.414,2.227,0.324,3.867
a,56724,0.000,0.438,36.000,0.371,1.076,-0.227,2.095,9.287,2.395,0.438,2.549
a,56727,0.000,0.552,36.000,0.020,0.465,1.070,2.279,9.436,2.096,0.552,2.593
a,56731,0.000,0.666,36.000,0.005,-0.466,0.429,2.386,9.337,2.292,0.666,2.637
a,56735,0.000,0.780,36.000,-0.545,-0.924,0.277,2.124,9.450,2.113,0.780,2.637
a,56739,0.000,0.895,36.000,0.371,0.404,-1.250,2.015,9.292,2.373,0.895,7.383
a,56743,0.000,1.009,36.000,0.005,0.450,0.139,2.167,9.498,2.163,1.009,3.164
a,56747,0.000,1.123,36.000,0.219,-0.023,-0.304,2.298,9.372,2.369,1.123,3.340
a,56751,0.000,1.236,36.000,-0.148,-0.390,0.811,2.205,9.501,2.125,1.236,3.384
a,56756,0.000,1.350,36.000,0.127,0.358,1.009,2.085,9.324,2.363,1.350,3.428
a,56760,0.000,1.464,36.000,-0.026,0.191,1.193,2.223,9.424,2.179,1.464,3.867
a,56763,0.000,1.577,36.000,0.035,0.038,-0.899,2.285,9.335,2.272,1.577,3.384
a,56767,0.000,1.691,36.000,-0.163,-0.405,-0.456,2.182,9.395,2.186,1.691,3.428
a,56771,0.000,1.804,36.000,0.081,-0.023,-1.342,2.127,9.337,2.278,1.804,3.867
a,56775,0.000,1.917,36.000,0.387,0.343,0.063,2.126,9.380,2.236,1.917,3.779
a,56780,0.000,2.030,36.000,-0.270,-0.344,-0.288,2.254,9.499,2.231,2.030,3.867
a,56784,0.000,2.143,36.000,0.295,0.465,1.269,2.151,9.295,2.286,2.143,3.823
a,56788,0.000,2.255,36.000,-0.163,-0.023,0.154,2.207,9.436,2.093,2.255,4.043
a,56791,0.000,2.368,36.000,-0.331,-0.985,0.215,2.361,9.372,2.326,2.368,6.812
a,56795,0.000,2.480,36.000,-0.255,0.191,-0.411,2.005,9.377,2.144,2.480,4.614
a,56799,0.000,2.591,36.000,0.432,0.633,0.002,2.155,9.321,2.358,2.591,4.658
a,56803,0.000,2.703,36.000,-0.010,0.038,0.093,2.285,9.398,2.131,2.703,4.658
a,56807,0.000,2.814,36.000,-0.071,-0.237,-1.098,2.257,9.321,2.265,2.814,4.834
a,56812,0.000,2.925,36.000,-0.224,-0.191,-1.647,2.142,9.406,2.212,2.925,4.834
a,56815,0.000,3.035,36.000,0.280,0.038,0.185,2.133,9.327,2.271,3.035,4.790
a,56819,0.000,3.146,36.000,0.234,0.465,0.170,2.161,9.367,2.236,3.146,4.746
a,56824,0.000,3.255,36.000,-0.224,-0.161,0.261,2.282,9.413,2.185,3.255,4.834
a,56827,0.000,3.365,36.000,0.066,-0.084,-0.029,2.158,9.291,2.283,3.365,4.878
a,56831,0.000,3.474,36.000,0.158,0.252,-0.258,2.137,9.355,2.189,3.474,5.317
a,56835,0.000,3.583,36.000,-0.224,-0.191,-1.433,2.292,9.425,2.248,3.583,5.405
a,56839,0.000,3.691,36.000,-0.056,-0.237,0.139,2.096,9.437,2.231,3.691,5.889
a,56843,0.000,3.799,36.000,0.066,0.618,-0.319,2.090,9.281,2.306,3.799,6.064
a,56847,0.000,3.906,36.000,-0.117,-0.008,0.582,2.291,9.427,2.139,3.906,6.108
a,56851,0.000,4.013,36.000,0.051,-0.252,-0.899,2.258,9.349,2.261,4.013,6.152
a,56856,0.000,4.120,36.000,-0.163,-0.359,-0.563,2.155,9.394,2.221,4.120,6.064
a,56860,0.000,4.226,36.000,0.005,0.191,0.078,2.149,9.323,2.296,4.226,6.108
a,56864,0.000,4.331,36.000,0.051,0.649,0.231,2.173,9.349,2.213,4.331,6.108
a,56867,0.000,0.000,36.000,0.173,-0.115,1.177,2.266,9.390,2.215,0.000,6.064
a,56872,0.000,0.000,36.000,-0.377,-0.252,-0.181,2.192,9.310,2.242,0.000,6.152
a,56875,0.000,0.000,36.000,0.066,0.420,0.444,2.105,9.291,2.241,0.000,6.724
a,56879,0.000,0.000,36.000,-0.163,0.038,-0.395,2.260,9.418,2.237,0.000,6.021
a,56883,0.000,0.000,36.000,-0.071,-0.176,-0.609,2.168,9.404,2.209,0.000,6.064
a,56887,0.000,0.000,36.000,0.097,0.129,-1.082,2.112,9.300,2.249,0.000,8.394
a,56891,0.000,0.000,36.000,-0.056,0.923,0.719,2.042,9.392,2.398,0.000,5.493
a,56895,0.000,0.000,36.000,-0.071,-0.405,-0.716,2.583,9.335,2.138,0.000,5.405
a,56899,0.000,0.000,36.000,-0.713,-2.038,-0.456,2.276,9.524,2.041,0.000,4.702
a,56903,0.000,0.000,36.000,0.539,0.633,-0.380,1.821,9.193,2.586,0.000,6.196
a,56907,0.000,0.000,36.000,0.081,0.801,-0.533,2.198,9.469,2.045,0.000,4.570
a,56912,0.000,0.000,36.000,0.112,0.358,0.444,2.348,9.304,2.261,0.000,4.219
a,56916,0.000,0.000,36.000,-0.346,-0.832,-1.036,2.277,9.509,2.137,0.000,4.131
a,56919,0.000,0.000,36.000,-0.102,-0.832,0.322,2.229,9.333,2.276,0.000,4.175
a,56923,0.000,0.000,36.000,0.112,0.511,-0.105,1.976,9.353,2.242,0.000,4.175
a,56927,0.000,0.000,36.000,0.051,0.526,-0.487,2.211,9.397,2.252,0.000,4.175
a,56931,0.000,0.000,36.000,0.158,-0.130,-0.090,2.324,9.347,2.207,0.000,4.570
a,56936,0.000,0.000,36.000,-0.270,-0.405,-0.075,2.204,9.380,2.163,0.000,4.131
a,56940,0.000,0.000,36.000,-0.163,-0.069,-0.472,2.239,9.336,2.328,0.000,4.526
a,56944,0.000,0.000,36.000,0.005,0.343,-0.365,2.055,9.355,2.191,0.000,4.614
a,56947,0.000,0.000,36.000,0.463,0.633,1.269,2.194,9.328,2.294,0.000,4.219
a,56951,0.000,0.000,36.000,-0.285,-0.023,-0.502,2.267,9.398,2.192,0.000,4.175
a,56955,0.000,0.000,36.000,0.051,-0.329,0.460,2.204,9.360,2.243,0.000,4.526
a,56960,0.000,0.000,36.000,-0.148,-0.237,0.475,2.180,9.389,2.242,0.000,4.131
a,56964,0.000,0.000,36.000,0.112,0.572,0.002,2.089,9.342,2.277,0.000,4.526
a,56967,0.000,0.000,36.000,0.051,0.465,-0.487,2.225,9.370,2.258,0.000,4.526
a,56972,0.000,0.000,36.000,-0.148,-0.069,0.414,2.295,9.398,2.192,0.000,4.570
a,56975,0.000,0.000,36.000,0.035,-0.405,-1.006,2.213,9.341,2.261,0.000,4.175
a,56979,0.000,0.000,36.000,0.051,-0.176,-0.243,2.170,9.384,2.246,0.000,4.219
a,56983,0.000,0.000,36.000,0.097,0.267,0.444,2.126,9.347,2.274,0.000,4.043
a,56987,0.000,0.000,36.000,0.173,0.297,-0.151,2.199,9.355,2.217,0.000,4.570
a,56991,0.000,0.000,36.000,-0.239,-0.405,-0.777,2.261,9.397,2.200,0.000,4.526
a,56995,0.000,0.000,36.000,0.173,-0.237,0.506,2.184,9.371,2.265,0.000,4.526
a,56999,0.000,0.000,36.000,-0.132,0.038,-1.265,2.149,9.360,2.218,0.000,4.219
a,57003,0.000,0.000,36.000,0.005,0.221,0.902,2.168,9.369,2.263,0.000,4.175
a,57007,0.000,0.000,36.000,-0.117,0.084,0.154,2.201,9.397,2.227,0.000,4.175
a,57011,0.000,0.000,36.000,-0.163,-0.466,-0.670,2.257,9.355,2.219,0.000,4.570
a,57015,0.000,0.000,36.000,-0.209,-0.344,0.307,2.217,9.370,2.245,0.000,4.570
a,57019,0.000,0.000,36.000,-0.010,-0.176,-0.349,2.137,9.374,2.236,0.000,4.175
a,57024,0.000,0.000,36.000,0.158,0.114,-0.991,2.168,9.369,2.245,0.000,4.131
a,57027,0.000,0.000,36.000,0.249,0.145,1.116,2.194,9.371,2.206,0.000,4.131
a,57031,0.000,0.000,36.000,0.051,-0.084,-1.235,2.242,9.376,2.242,0.000,4.219
a,57035,0.000,0.000,36.000,-0.163,-0.344,-0.349,2.219,9.380,2.230,0.000,4.570
a,57039,0.000,0.000,36.000,0.112,-0.008,0.857,2.121,9.355,2.258,0.000,4.526
a,57043,0.000,0.000,36.000,0.051,0.221,0.490,2.198,9.372,2.229,0.000,4.526
a,57047,0.000,0.000,36.000,0.051,-0.054,0.719,2.217,9.406,2.217,0.000,4.570
a,57051,0.000,0.000,36.000,-0.209,-0.145,-0.395,2.219,9.385,2.223,0.000,4.570
a,57055,0.000,0.000,36.000,-0.331,0.053,0.261,2.219,9.366,2.203,0.000,4.570
a,57060,0.000,0.000,36.000,0.081,0.206,-0.975,2.157,9.364,2.265,0.000,4.526
a,57063,0.000,0.000,36.000,-0.163,0.145,-0.243,2.215,9.374,2.242,0.000,4.526
a,57067,0.000,0.000,36.000,-0.117,-0.023,-0.120,2.229,9.378,2.224,0.000,4.526
a,57071,0.000,0.000,36.000,-0.224,-0.237,-0.014,2.207,9.364,2.217,0.000,4.131
a,57075,0.000,0.000,36.000,-0.041,-0.008,1.788,2.199,9.386,2.237,0.000,4.614
a,57080,0.000,0.000,36.000,-0.041,0.481,1.131,2.158,9.351,2.269,0.000,4.219
a,57084,0.000,0.000,36.000,-0.163,0.023,-0.838,2.179,9.367,2.241,0.000,4.570
a,57087,0.000,0.000,36.000,-0.316,-0.069,0.200,2.223,9.388,2.247,0.000,4.570
a,57091,0.000,0.000,36.000,-0.010,-0.176,-0.120,2.205,9.383,2.223,0.000,4.570
a,57095,0.000,0.000,36.000,-0.331,-0.054,0.307,2.170,9.352,2.234,0.000,4.131
a,57099,0.000,0.000,36.000,0.005,0.358,0.185,2.180,9.335,2.249,0.000,4.175
a,57103,0.000,0.000,36.000,0.066,-0.038,-0.243,2.180,9.364,2.254,0.000,4.219
a,57108,0.000,0.000,36.000,0.097,0.084,0.017,2.225,9.349,2.223,0.000,4.570
a,57112,0.000,0.000,36.000,-0.163,0.053,0.414,2.180,9.383,2.215,0.000,4.570
a,57115,0.000,0.000,36.000,-0.010,-0.069,0.154,2.189,9.365,2.249,0.000,4.526
a,57120,0.000,0.000,36.000,0.181,0.133,0.219,2.199,9.374,2.245,0.000,4.175
a,57123,0.000,0.000,36.000,0.150,-0.081,-0.636,2.221,9.352,2.247,0.000,4.526
a,57127,0.000,0.000,36.000,0.105,0.041,0.402,2.207,9.341,2.236,0.000,4.175
a,57131,0.000,0.000,36.000,0.105,-0.081,0.021,2.174,9.398,2.221,0.000,4.614
a,57135,0.000,0.000,36.000,-0.048,0.194,0.021,2.180,9.378,2.237,0.000,4.526
a,57139,0.000,0.000,36.000,-0.002,0.026,0.188,2.199,9.371,2.227,0.000,4.570
a,57143,0.000,0.000,36.000,-0.048,-0.020,0.250,2.239,9.369,2.215,0.000,4.219
a,57147,0.000,0.000,36.000,0.059,-0.035,-0.422,2.194,9.392,2.231,0.000,4.614
a,57151,0.000,0.000,36.000,0.150,-0.081,-1.124,2.186,9.380,2.215,0.000,4.175
a,57155,0.000,0.000,36.000,0.028,-0.188,1.135,2.188,9.367,2.239,0.000,4.175
a,57159,0.000,0.000,36.000,0.059,0.133,0.112,2.186,9.380,2.217,0.000,4.570
a,57163,0.000,0.000,36.000,-0.048,0.148,0.784,2.229,9.354,2.234,0.000,4.526
a,57167,0.000,0.000,36.000,-0.170,-0.142,-1.598,2.211,9.378,2.234,0.000,4.175
a,57171,0.000,0.000,36.000,0.105,0.179,-0.483,2.179,9.337,2.241,0.000,4.131
a,57176,0.000,0.000,36.000,-0.002,0.209,0.784,2.192,9.390,2.227,0.000,4.570
a,57179,0.000,0.000,36.000,0.273,-0.081,-0.147,2.194,9.397,2.231,0.000,4.175
a,57183,0.000,0.000,36.000,-0.017,-0.081,-1.048,2.219,9.384,2.243,0.000,4.570
a,57187,0.000,0.000,36.000,-0.048,-0.142,0.127,2.195,9.357,2.201,0.000,4.526
a,57191,0.000,0.000,36.000,-0.109,-0.081,-0.132,2.170,9.361,2.246,0.000,4.175
a,57195,0.000,0.000,36.000,0.044,-0.081,-0.804,2.189,9.379,2.237,0.000,4.614
a,57199,0.000,0.000,36.000,0.074,-0.050,-0.041,2.213,9.352,2.227,0.000,4.570
a,57203,0.000,0.000,36.000,0.044,-0.035,-1.674,2.198,9.376,2.252,0.000,4.175
a,57207,0.000,0.000,36.000,-0.246,-0.081,0.738,2.215,9.373,2.236,0.000,4.570
a,57211,0.000,0.000,36.000,0.059,0.087,0.402,2.198,9.365,2.230,0.000,4.570
a,57216,0.000,0.000,36.000,-0.094,0.072,0.692,2.188,9.390,2.229,0.000,4.526
a,57219,0.000,0.000,36.000,-0.094,0.087,1.028,2.235,9.376,2.229,0.000,4.526
a,57223,0.000,0.000,36.000,-0.033,0.056,0.143,2.182,9.385,2.233,0.000,4.570
a,57227,0.000,0.000,36.000,0.059,-0.020,0.402,2.176,9.365,2.249,0.000,4.175
a,57231,0.000,0.000,36.000,0.013,-0.035,0.250,2.189,9.400,2.223,0.000,4.526
a,57236,0.000,0.000,36.000,0.074,0.011,-0.147,2.215,9.388,2.227,0.000,4.614
a,57240,0.000,0.000,36.000,-0.017,-0.188,-0.834,2.186,9.378,2.230,0.000,4.175
a,57243,0.000,0.000,36.000,-0.124,-0.142,-0.941,2.192,9.374,2.229,0.000,4.131
a,57247,0.000,0.000,36.000,0.105,0.087,0.341,2.188,9.370,2.278,0.000,4.087
a,57251,0.000,0.000,36.000,0.105,-0.127,0.295,2.198,9.379,2.247,0.000,4.526
a,57256,0.000,0.000,36.000,0.105,-0.081,0.066,2.204,9.329,2.231,0.000,4.219
a,57260,0.000,0.000,36.000,0.242,0.117,-0.056,2.199,9.370,2.233,0.000,4.570
a,57263,0.000,0.000,36.000,-0.124,-0.142,-0.453,2.180,9.372,2.247,0.000,4.175
a,57268,0.000,0.000,36.000,-0.124,-0.142,-0.621,2.163,9.384,2.223,0.000,4.219
a,57271,0.000,0.000,36.000,-0.109,0.301,0.127,2.189,9.380,2.234,0.000,4.482
a,57275,0.000,0.000,36.000,0.059,0.026,-0.147,2.201,9.386,2.205,0.000,4.570
a,57279,0.000,0.000,36.000,-0.155,-0.188,0.143,2.199,9.404,2.249,0.000,4.219
a,57283,0.000,0.000,36.000,-0.048,0.026,-0.239,2.189,9.390,2.227,0.000,4.526
a,57287,0.000,0.000,36.000,-0.140,-0.127,1.013,2.198,9.385,2.224,0.000,4.175
a,57291,0.000,0.000,36.000,0.120,-0.050,-0.422,2.192,9.359,2.213,0.000,4.614
a,57295,0.000,0.000,36.000,0.166,0.026,-0.193,2.194,9.360,2.253,0.000,4.570
a,57299,0.000,0.000,36.000,-0.185,0.133,1.440,2.211,9.361,2.239,0.000,4.570
a,57303,0.000,0.000,36.000,-0.155,-0.020,0.631,2.188,9.374,2.217,0.000,4.175
a,57308,0.000,0.000,36.000,0.150,-0.142,-0.682,2.205,9.365,2.237,0.000,4.526
a,57311,0.000,0.000,36.000,-0.109,0.072,0.143,2.179,9.384,2.258,0.000,4.219
a,57315,0.000,0.000,36.000,0.059,0.133,-0.437,2.198,9.343,2.240,0.000,4.526
a,57319,0.000,0.000,36.000,0.273,-0.249,0.021,2.215,9.376,2.236,0.000,4.570
a,57323,0.000,0.000,36.000,0.044,-0.249,-1.613,2.184,9.369,2.217,0.000,4.175
a,57327,0.000,0.000,36.000,-0.048,0.087,0.692,2.195,9.378,2.231,0.000,4.658
a,57331,0.000,0.000,36.000,-0.063,0.072,-0.560,2.195,9.361,2.247,0.000,4.526
a,57335,0.000,0.000,36.000,0.181,-0.188,0.555,2.199,9.385,2.245,0.000,4.175
a,57339,0.000,0.000,36.000,0.120,0.087,1.181,2.174,9.378,2.236,0.000,4.614
a,57343,0.000,0.000,36.000,0.074,0.056,-0.086,2.217,9.367,2.219,0.000,4.570
a,57347,0.000,0.000,36.000,0.074,-0.066,-0.132,2.199,9.386,2.248,0.000,4.526
a,57351,0.000,0.000,36.000,-0.109,0.240,0.188,2.194,9.343,2.218,0.000,4.219
a,57356,0.000,0.000,36.000,-0.017,0.026,-0.789,2.205,9.366,2.217,0.000,4.219
a,57360,0.000,0.000,36.000,-0.109,0.072,0.036,2.194,9.378,2.240,0.000,4.570
a,57363,0.000,0.000,36.000,0.013,-0.096,0.204,2.176,9.359,2.227,0.000,4.526
a,57367,0.000,0.000,36.000,-0.063,-0.035,-1.430,2.204,9.370,2.237,0.000,4.570
a,57372,0.000,0.000,36.000,-0.262,-0.035,-0.346,2.182,9.378,2.236,0.000,4.570
a,57375,0.000,0.000,36.000,-0.048,-0.020,0.417,2.198,9.386,2.236,0.000,4.526
a,57379,0.000,0.000,36.000,0.227,-0.127,0.555,2.189,9.376,2.243,0.000,4.570
a,57384,0.000,0.000,36.000,0.166,-0.173,0.234,2.195,9.378,2.258,0.000,4.570
a,57388,0.000,0.000,36.000,0.181,0.117,0.112,2.198,9.396,2.239,0.000,4.175
a,57391,0.000,0.000,36.000,0.013,-0.157,-0.346,2.201,9.382,2.233,0.000,4.219
a,57395,0.000,0.000,36.000,-0.109,0.056,-0.453,2.217,9.378,2.227,0.000,4.526
a,57399,0.000,0.000,36.000,-0.002,-0.066,0.311,2.204,9.364,2.247,0.000,4.175
a,57403,0.000,0.000,36.000,-0.140,0.117,0.127,2.186,9.364,2.248,0.000,4.526
a,57407,0.000,0.000,36.000,-0.048,0.194,-0.422,2.210,9.365,2.218,0.000,4.570
a,57412,0.000,0.000,36.000,-0.017,0.133,-0.682,2.179,9.392,2.234,0.000,4.526
a,57415,0.000,0.000,36.000,0.166,-0.096,-0.682,2.182,9.349,2.241,0.000,4.175
a,57420,0.000,0.000,36.000,-0.170,-0.081,-1.170,2.204,9.395,2.211,0.000,4.219
a,57423,0.000,0.000,36.000,0.059,0.026,0.021,2.192,9.383,2.258,0.000,4.526
a,57427,0.000,0.000,36.000,-0.140,0.255,0.845,2.184,9.365,2.243,0.000,4.219
a,57431,0.000,0.000,36.000,-0.048,-0.188,0.082,2.205,9.380,2.240,0.000,4.614
a,57435,0.000,0.000,36.000,0.105,0.072,0.127,2.189,9.390,2.221,0.000,4.526
a,57439,0.000,0.000,36.000,-0.002,0.041,0.463,2.189,9.379,2.231,0.000,4.570
a,57443,0.000,0.000,36.000,-0.201,0.117,0.188,2.189,9.376,2.241,0.000,4.526
a,57447,0.000,0.000,36.000,0.089,0.056,2.158,2.205,9.374,2.240,0.000,4.526
a,57451,0.000,0.000,36.000,0.089,0.026,-0.682,2.205,9.365,2.231,0.000,4.131
a,57455,0.000,0.000,36.000,-0.002,-0.035,-0.025,2.199,9.352,2.231,0.000,4.219
a,57459,0.000,0.000,36.000,-0.048,0.056,-0.621,2.201,9.385,2.239,0.000,4.526
a,57463,0.000,0.000,36.000,0.074,0.087,1.211,2.205,9.400,2.211,0.000,4.570
a,57468,0.000,0.000,36.000,-0.048,-0.035,0.143,2.210,9.380,2.243,0.000,4.570
a,57471,0.000,0.000,36.000,-0.170,0.026,-0.666,2.179,9.380,2.224,0.000,4.175
a,57475,0.000,0.000,36.000,-0.094,-0.020,1.135,2.194,9.346,2.229,0.000,4.526
a,57479,0.000,0.000,36.000,-0.017,0.026,-0.560,2.179,9.386,2.231,0.000,4.614
a,57483,0.000,0.000,36.000,0.242,0.209,0.937,2.188,9.379,2.261,0.000,4.219
a,57487,0.000,0.000,36.000,0.059,-0.035,-0.315,2.225,9.384,2.234,0.000,4.526
a,57491,0.000,0.000,36.000,0.105,-0.157,-0.636,2.182,9.377,2.254,0.000,4.175
a,57495,0.000,0.000,36.000,0.135,-0.310,-1.995,2.182,9.370,2.223,0.000,4.570
a,57499,0.000,0.000,36.000,0.242,0.209,1.211,2.213,9.386,2.252,0.000,4.219
a,57503,0.000,0.000,36.000,0.044,-0.035,-0.529,2.217,9.360,2.230,0.000,4.570
a,57507,0.000,0.000,36.000,-0.002,-0.218,-0.544,2.199,9.366,2.235,0.000,4.175
a,57512,0.000,0.000,36.000,-0.048,-0.234,0.356,2.189,9.383,2.223,0.000,4.219
a,57515,0.000,0.000,36.000,-0.002,-0.081,-0.346,2.179,9.370,2.217,0.000,4.526
a,57519,0.000,0.000,36.000,-0.109,-0.188,-0.071,2.194,9.392,2.229,0.000,4.526
a,57523,0.000,0.000,36.000,0.013,0.072,0.570,2.211,9.380,2.247,0.000,4.526
a,57527,0.000,0.000,36.000,0.288,-0.157,0.066,2.192,9.348,2.227,0.000,4.526
a,57532,0.000,0.000,36.000,0.120,-0.157,-0.193,2.184,9.351,2.245,0.000,4.131
a,57536,0.000,0.000,36.000,-0.140,-0.188,0.311,2.189,9.360,2.235,0.000,4.175
a,57540,0.000,0.000,36.000,-0.033,-0.142,0.356,2.180,9.376,2.236,0.000,4.526
a,57543,0.000,0.000,36.000,0.013,-0.035,0.356,2.194,9.364,2.247,0.000,4.219
a,57547,0.000,0.000,36.000,0.105,0.041,0.448,2.176,9.360,2.224,0.000,4.570
a,57551,0.000,0.000,36.000,-0.262,-0.234,0.631,2.188,9.347,2.236,0.000,4.175
a,57555,0.000,0.000,36.000,-0.094,-0.173,1.028,2.189,9.355,2.237,0.000,4.175
a,57560,0.000,0.000,36.000,-0.002,0.179,-0.468,2.194,9.361,2.223,0.000,4.570
a,57563,0.000,0.000,36.000,0.013,0.011,-0.407,2.205,9.373,2.229,0.000,4.526
a,57568,0.000,0.000,36.000,-0.124,-0.035,-0.560,2.189,9.390,2.230,0.000,4.526
a,57571,0.000,0.000,36.000,0.074,-0.127,1.074,2.204,9.392,2.223,0.000,4.526
a,57575,0.000,0.000,36.000,-0.002,-0.035,0.036,2.211,9.383,2.230,0.000,4.219
a,57579,0.000,0.000,36.000,0.273,0.194,0.112,2.188,9.404,2.255,0.000,4.175
a,57583,0.000,0.000,36.000,0.059,-0.050,-1.124,2.199,9.382,2.223,0.000,4.175
a,57587,0.000,0.000,36.000,-0.002,0.133,0.127,2.186,9.370,2.237,0.000,4.614
a,57591,0.000,0.000,36.000,0.105,0.347,-0.056,2.174,9.354,2.221,0.000,4.175
a,57595,0.000,0.000,36.000,0.059,0.133,0.051,2.205,9.358,2.218,0.000,4.526
a,57599,0.000,0.000,36.000,0.013,-0.020,0.921,2.168,9.378,2.242,0.000,4.570
a,57603,0.000,0.000,36.000,0.105,0.072,0.127,2.174,9.389,2.230,0.000,4.570
a,57607,0.000,0.000,36.000,0.089,-0.142,1.120,2.207,9.395,2.216,0.000,4.175
a,57611,0.000,0.000,36.000,0.013,-0.050,0.036,2.207,9.373,2.212,0.000,4.614
a,57615,0.000,0.000,36.000,-0.002,-0.081,-0.346,2.194,9.384,2.236,0.000,4.131
a,57619,0.000,0.000,36.000,-0.201,-0.157,-0.025,2.174,9.413,2.219,0.000,4.175
a,57624,0.000,0.000,36.000,-0.140,-0.096,0.814,2.207,9.383,2.239,0.000,4.570
a,57627,0.000,0.000,36.000,-0.109,-0.066,0.524,2.186,9.389,2.237,0.000,4.614
a,57631,0.000,0.000,36.000,-0.002,-0.264,-1.109,2.189,9.396,2.212,0.000,4.570
a,57635,0.000,0.000,36.000,-0.094,-0.173,1.089,2.189,9.379,2.230,0.000,4.087
a,57639,0.000,0.000,36.000,-0.094,0.072,0.570,2.194,9.385,2.227,0.000,4.219
a,57643,0.000,0.000,36.000,0.059,-0.081,-0.361,2.210,9.390,2.236,0.000,4.175
a,57647,0.000,0.000,36.000,0.105,0.148,0.280,2.186,9.407,2.243,0.000,4.131
a,57651,0.000,0.000,36.000,-0.231,0.240,-0.636,2.198,9.409,2.252,0.000,4.526
a,57655,0.000,0.000,36.000,-0.002,-0.081,-0.132,2.210,9.376,2.252,0.000,4.570
a,57660,0.000,0.000,36.000,0.059,-0.035,-0.361,2.201,9.418,2.247,0.000,4.219
a,57663,0.000,0.000,36.000,0.105,0.056,-0.804,2.188,9.382,2.254,0.000,4.526
a,57667,0.000,0.000,36.000,-0.216,-0.188,0.036,2.184,9.370,2.230,0.000,4.175
a,57671,0.000,0.000,36.000,0.120,0.117,-0.163,2.198,9.402,2.247,0.000,4.570
a,57675,0.000,0.000,36.000,-0.140,-0.096,-0.132,2.205,9.388,2.248,0.000,4.219
a,57680,0.000,0.000,36.000,-0.048,-0.173,-0.712,2.174,9.398,2.229,0.000,4.570
a,57684,0.000,0.000,36.000,0.044,-0.035,-0.911,2.235,9.364,2.231,0.000,4.570
a,57688,0.000,0.000,36.000,-0.201,-0.035,0.463,2.201,9.409,2.235,0.000,4.175
a,57691,0.000,0.000,36.000,-0.094,0.011,-0.300,2.195,9.402,2.242,0.000,4.614
a,57695,0.000,0.000,36.000,-0.109,-0.157,-0.789,2.204,9.392,2.260,0.000,4.570
a,57699,0.000,0.000,36.000,0.120,0.072,0.402,2.201,9.380,2.248,0.000,4.570
a,57703,0.000,0.000,36.000,-0.002,-0.081,0.082,2.192,9.376,2.247,0.000,4.526
a,57707,0.000,0.000,36.000,-0.017,-0.035,-0.666,2.210,9.395,2.218,0.000,4.131
a,57712,0.000,0.000,36.000,-0.201,0.056,0.204,2.195,9.413,2.239,0.000,4.175
a,57715,0.000,0.000,36.000,-0.017,-0.035,-0.621,2.182,9.397,2.237,0.000,4.131
a,57720,0.000,0.000,36.000,-0.033,-0.050,-0.071,2.198,9.384,2.236,0.000,4.131
a,57723,0.000,0.000,36.000,-0.231,-0.142,-0.789,2.179,9.380,2.247,0.000,4.175
a,57727,0.000,0.000,36.000,-0.033,-0.081,0.799,2.180,9.392,2.248,0.000,4.175
a,57731,0.000,0.000,36.000,-0.094,0.026,0.250,2.195,9.382,2.241,0.000,4.570
a,57735,0.000,0.000,36.000,0.120,0.011,0.021,2.188,9.361,2.252,0.000,4.658
a,57739,0.000,0.000,36.000,-0.109,-0.173,0.356,2.198,9.374,2.218,0.000,4.131
a,57743,0.000,0.000,36.000,-0.140,0.056,-0.178,2.207,9.378,2.229,0.000,4.570
a,57747,0.000,0.000,36.000,-0.033,-0.050,-0.346,2.174,9.378,2.241,0.000,4.526
a,57751,0.000,0.000,36.000,0.150,-0.249,-0.529,2.215,9.380,2.218,0.000,4.175
a,57755,0.000,0.000,36.000,0.059,0.041,0.555,2.194,9.384,2.223,0.000,4.219
a,57759,0.000,0.000,36.000,0.074,-0.142,0.341,2.186,9.364,2.233,0.000,4.175
a,57763,0.000,0.000,36.000,-0.002,0.148,0.830,2.198,9.360,2.246,0.000,4.219
a,57768,0.000,0.000,36.000,0.013,0.011,-0.178,2.198,9.371,2.235,0.000,4.526
a,57771,0.000,0.000,36.000,0.196,0.026,1.563,2.201,9.378,2.247,0.000,4.219
a,57775,0.000,0.000,36.000,-0.216,-0.157,-1.659,2.189,9.384,2.247,0.000,4.570
a,57779,0.000,0.000,36.000,-0.033,0.316,1.715,2.184,9.372,2.231,0.000,4.526
a,57783,0.000,0.000,36.000,0.105,0.209,0.540,2.184,9.347,2.231,0.000,4.219
a,57787,0.000,0.000,36.000,-0.033,-0.081,0.250,2.194,9.377,2.229,0.000,4.175
a,57791,0.000,0.000,36.000,-0.048,-0.050,-0.514,2.194,9.364,2.223,0.000,4.570
a,57795,0.000,0.000,36.000,-0.002,0.255,0.723,2.189,9.343,2.234,0.000,4.570
a,57799,0.000,0.000,36.000,-0.048,-0.020,0.738,2.188,9.379,2.229,0.000,4.131
a,57803,0.000,0.000,36.000,-0.109,0.072,0.204,2.180,9.383,2.229,0.000,4.175
a,57807,0.000,0.000,36.000,0.013,0.117,-0.086,2.192,9.391,2.235,0.000,4.526
a,57812,0.000,0.000,36.000,-0.017,0.133,-0.804,2.194,9.360,2.223,0.000,4.570
a,57815,0.000,0.000,36.000,-0.017,0.026,1.135,2.186,9.376,2.249,0.000,4.175
a,57819,0.000,0.000,36.000,-0.262,0.072,0.021,2.223,9.383,2.229,0.000,4.526
a,57823,0.000,0.000,36.000,-0.048,-0.035,-0.132,2.182,9.365,2.242,0.000,4.175
a,57827,0.000,0.000,36.000,0.181,-0.035,0.616,2.188,9.369,2.219,0.000,4.614
a,57832,0.000,0.000,36.000,-0.094,0.148,1.013,2.198,9.376,2.240,0.000,4.570
a,57836,0.000,0.000,36.000,0.166,0.026,-0.041,2.199,9.341,2.242,0.000,4.614
a,57839,0.000,0.000,36.000,-0.109,0.117,-0.468,2.188,9.354,2.225,0.000,4.570
a,57843,0.000,0.000,36.000,-0.124,0.026,-1.323,2.204,9.370,2.237,0.000,4.175
a,57847,0.000,0.000,36.000,0.013,0.209,1.334,2.199,9.376,2.224,0.000,4.570
a,57851,0.000,0.000,36.000,-0.033,-0.341,1.410,2.217,9.386,2.255,0.000,4.219
a,57855,0.000,0.000,36.000,-0.017,-0.081,-0.728,2.201,9.379,2.229,0.000,4.570
a,57860,0.000,0.000,36.000,-0.231,-0.081,-1.002,2.204,9.386,2.223,0.000,4.614
a,57864,0.000,0.000,36.000,0.150,0.072,-0.636,2.204,9.360,2.246,0.000,4.614
a,57867,0.000,0.000,36.000,-0.140,-0.050,0.204,2.182,9.364,2.242,0.000,4.526
a,57872,0.000,0.000,36.000,-0.002,0.209,0.555,2.198,9.378,2.236,0.000,4.570
a,57875,0.000,0.000,36.000,0.227,-0.203,-0.804,2.184,9.384,2.239,0.000,4.175
a,57879,0.000,0.000,36.000,-0.094,0.056,-0.300,2.182,9.400,2.241,0.000,4.175
a,57883,0.000,0.000,36.000,-0.109,-0.066,0.799,2.188,9.379,2.227,0.000,4.175
a,57887,0.000,0.000,36.000,0.028,0.072,1.028,2.180,9.339,2.249,0.000,4.175
a,57891,0.000,0.000,36.000,0.257,-0.035,0.952,2.188,9.336,2.210,0.000,4.131
a,57895,0.000,0.000,36.000,-0.048,0.087,0.417,2.213,9.376,2.247,0.000,4.482
a,57899,0.000,0.000,36.000,0.089,-0.295,-1.506,2.198,9.383,2.237,0.000,4.175
a,57903,0.000,0.000,36.000,0.089,0.072,-1.063,2.204,9.379,2.229,0.000,4.175
a,57907,0.000,0.000,36.000,0.105,-0.249,0.066,2.217,9.370,2.240,0.000,4.570
a,57911,0.000,0.000,36.000,0.227,-0.020,0.402,2.188,9.392,2.231,0.000,4.482
a,57915,0.000,0.000,36.000,0.120,0.117,-0.270,2.204,9.360,2.241,0.000,4.526
a,57919,0.000,0.000,36.000,-0.017,-0.081,-0.728,2.207,9.401,2.242,0.000,4.175
a,57923,0.000,0.000,36.000,-0.201,0.194,0.555,2.205,9.380,2.239,0.000,4.570
a,57928,0.000,0.000,36.000,-0.033,0.087,0.967,2.194,9.389,2.234,0.000,4.219
a,57931,0.000,0.000,36.000,0.105,-0.050,-0.529,2.198,9.371,2.233,0.000,4.175
a,57935,0.000,0.000,36.000,0.074,0.011,-0.041,2.184,9.378,2.236,0.000,4.131
a,57939,0.000,0.000,36.000,-0.109,-0.096,-0.666,2.186,9.384,2.241,0.000,4.614
a,57943,0.000,0.000,36.000,0.059,-0.081,-0.315,2.194,9.369,2.227,0.000,4.570
a,57947,0.000,0.000,36.000,-0.094,0.056,0.204,2.182,9.376,2.248,0.000,4.614
a,57951,0.000,0.000,36.000,-0.109,0.041,0.463,2.211,9.378,2.217,0.000,4.087
a,57955,0.000,0.000,36.000,0.074,-0.142,0.448,2.179,9.384,2.245,0.000,4.570
a,57960,0.000,0.000,36.000,0.120,-0.066,1.074,2.205,9.370,2.234,0.000,4.570
a,57963,0.000,0.000,36.000,-0.002,-0.081,-0.407,2.188,9.389,2.234,0.000,4.570
a,57967,0.000,0.000,36.000,0.105,-0.142,-0.361,2.164,9.376,2.231,0.000,4.570
a,57971,0.000,0.000,36.000,0.120,0.011,-0.193,2.207,9.373,2.210,0.000,4.131
a,57975,0.000,0.000,36.000,0.013,0.179,0.356,2.188,9.372,2.242,0.000,4.570
a,57980,0.000,0.000,36.000,0.074,0.072,0.616,2.186,9.348,2.229,0.000,4.526
a,57984,0.000,0.000,36.000,0.059,0.087,0.234,2.207,9.360,2.229,0.000,4.570
a,57987,0.000,0.000,36.000,0.059,0.224,-0.590,2.170,9.361,2.258,0.000,4.175
a,57991,0.000,0.000,36.000,0.074,0.056,-0.193,2.205,9.361,2.227,0.000,4.482
a,57995,0.000,0.000,36.000,-0.109,-0.157,-1.170,2.201,9.373,2.239,0.000,4.087
a,57999,0.000,0.000,36.000,0.028,0.026,1.135,2.168,9.349,2.255,0.000,4.175
a,58003,0.000,0.000,36.000,-0.002,-0.020,0.356,2.194,9.364,2.229,0.000,4.658
a,58008,0.000,0.000,36.000,-0.246,0.224,-0.361,2.205,9.369,2.227,0.000,4.570
a,58012,0.000,0.000,36.000,-0.063,-0.249,-1.109,2.199,9.366,2.224,0.000,4.175
a,58015,0.000,0.000,36.000,0.074,0.041,0.906,2.229,9.347,2.229,0.000,4.526
a,58020,0.000,0.000,36.000,-0.140,-0.050,0.204,2.205,9.391,2.241,0.000,4.131
a,58023,0.000,0.000,36.000,0.166,-0.066,0.677,2.189,9.347,2.240,0.000,4.131
a,58027,0.000,0.000,36.000,0.044,-0.188,-0.911,2.198,9.361,2.223,0.000,4.526
a,58031,0.000,0.000,36.000,-0.002,-0.020,0.463,2.194,9.366,2.237,0.000,4.131
a,58035,0.000,0.000,36.000,0.089,-0.035,-0.850,2.199,9.349,2.223,0.000,4.219
a,58039,0.000,0.000,36.000,0.059,0.026,0.188,2.182,9.374,2.221,0.000,4.131
a,58043,0.000,0.000,36.000,-0.231,0.072,-0.514,2.217,9.361,2.224,0.000,4.175
a,58047,0.000,0.000,36.000,-0.002,-0.142,-0.025,2.192,9.378,2.243,0.000,4.131
a,58051,0.000,0.000,36.000,-0.048,-0.066,0.311,2.207,9.372,2.221,0.000,4.570
a,58055,0.000,0.000,36.000,0.120,-0.157,-0.361,2.173,9.376,2.223,0.000,4.175
a,58059,0.000,0.000,36.000,-0.109,0.011,-0.621,2.174,9.336,2.217,0.000,4.131
a,58063,0.000,0.000,36.000,-0.140,0.087,1.624,2.199,9.390,2.207,0.000,4.526
a,58068,0.000,0.000,36.000,0.074,0.133,0.601,2.179,9.371,2.239,0.000,4.526
a,58071,0.000,0.000,36.000,-0.002,-0.081,0.143,2.189,9.370,2.224,0.000,4.175
a,58075,0.000,0.000,36.000,-0.094,0.026,0.463,2.194,9.379,2.221,0.000,4.570
a,58079,0.000,0.000,36.000,-0.140,-0.050,0.143,2.188,9.392,2.247,0.000,4.175
a,58083,0.000,0.000,36.000,-0.094,0.209,0.036,2.235,9.354,2.231,0.000,4.614
a,58087,0.000,0.000,36.000,-0.048,-0.142,0.204,2.176,9.376,2.263,0.000,4.570
a,58091,0.000,0.000,36.000,-0.140,0.011,-0.300,2.204,9.355,2.219,0.000,4.570
a,58095,0.000,0.000,36.000,0.166,0.148,0.540,2.188,9.321,2.255,0.000,4.175
a,58099,0.000,0.000,36.000,-0.231,-0.035,-0.560,2.188,9.361,2.221,0.000,4.570
a,58103,0.000,0.000,36.000,0.059,-0.035,-0.315,2.207,9.360,2.209,0.000,4.570
a,58107,0.000,0.000,36.000,0.013,-0.264,0.204,2.186,9.378,2.213,0.000,4.175
a,58112,0.000,0.000,36.000,0.013,0.072,0.799,2.179,9.355,2.216,0.000,4.175
a,58115,0.000,0.000,36.000,-0.109,0.056,-1.002,2.217,9.361,2.221,0.000,4.614
a,58119,0.000,0.000,36.000,-0.170,-0.035,-0.834,2.198,9.403,2.236,0.000,4.526
a,58124,0.000,0.000,36.000,-0.048,0.133,-0.041,2.194,9.340,2.255,0.000,4.570
a,58127,0.000,0.000,36.000,-0.155,0.194,-0.422,2.199,9.365,2.246,0.000,4.526
a,58131,0.000,0.000,36.000,-0.048,-0.050,-1.323,2.207,9.353,2.271,0.000,4.482
a,58136,0.000,0.000,36.000,-0.033,0.026,0.250,2.188,9.351,2.231,0.000,4.175
a,58140,0.000,0.000,36.000,0.013,0.117,-0.193,2.195,9.365,2.229,0.000,4.570
a,58143,0.000,0.000,36.000,-0.109,0.087,0.631,2.184,9.364,2.236,0.000,4.131
a,58147,0.000,0.000,36.000,0.013,0.026,0.463,2.189,9.370,2.242,0.000,4.131
a,58151,0.000,0.000,36.000,0.074,-0.112,-0.025,2.180,9.355,2.239,0.000,4.526
a,58155,0.000,0.000,36.000,0.013,-0.066,-0.285,2.174,9.376,2.242,0.000,4.614
a,58160,0.000,0.000,36.000,-0.094,-0.005,-0.437,2.205,9.370,2.210,0.000,4.526
a,58163,0.000,0.000,36.000,-0.140,0.194,0.341,2.189,9.367,2.216,0.000,4.087
a,58168,0.000,0.000,36.000,-0.048,0.209,0.555,2.184,9.322,2.230,0.000,4.175
a,58172,0.000,0.000,36.000,-0.094,-0.203,0.204,2.198,9.384,2.236,0.000,4.570
a,58175,0.000,0.000,36.000,-0.109,0.133,0.066,2.199,9.355,2.215,0.000,4.175
a,58179,0.000,0.000,36.000,-0.109,-0.035,-0.407,2.189,9.336,2.237,0.000,4.570
a,58183,0.000,0.000,36.000,0.074,-0.050,0.066,2.227,9.357,2.221,0.000,4.570
a,58187,0.000,0.000,36.000,-0.109,-0.066,0.311,2.204,9.361,2.227,0.000,4.175
a,58191,0.000,0.000,36.000,-0.033,-0.203,-0.132,2.189,9.391,2.235,0.000,4.175
a,58195,0.000,0.000,36.000,-0.201,0.133,0.723,2.215,9.402,2.252,0.000,4.175
a,58199,0.000,0.000,36.000,0.028,0.072,1.303,2.188,9.391,2.207,0.000,4.570
a,58203,0.000,0.000,36.000,-0.048,-0.157,-0.621,2.199,9.385,2.221,0.000,4.175
a,58207,0.000,0.000,36.000,0.242,0.133,0.219,2.207,9.396,2.242,0.000,4.131
a,58211,0.000,0.000,36.000,-0.155,0.179,-0.682,2.195,9.360,2.216,0.000,4.614
a,58215,0.000,0.000,36.000,0.120,0.179,0.005,2.229,9.395,2.241,0.000,4.131
a,58219,0.000,0.000,36.000,-0.079,0.072,1.517,2.184,9.371,2.217,0.000,4.570
a,58224,0.000,0.000,36.000,-0.109,-0.081,-0.346,2.201,9.361,2.247,0.000,4.570
a,58227,0.000,0.000,36.000,-0.002,-0.142,0.143,2.184,9.384,2.229,0.000,4.131
a,58231,0.000,0.000,36.000,0.212,-0.142,-0.529,2.201,9.394,2.253,0.000,4.570
a,58235,0.000,0.000,36.000,0.044,-0.142,-0.957,2.179,9.376,2.246,0.000,4.175
a,58239,0.000,0.000,36.000,0.105,0.117,-1.079,2.189,9.390,2.221,0.000,4.175
a,58243,0.000,0.000,36.000,0.105,-0.005,-0.514,2.199,9.369,2.245,0.000,4.087
a,58247,0.000,0.000,36.000,-0.048,0.026,-0.071,2.180,9.383,2.243,0.000,4.570
a,58251,0.000,0.000,36.000,0.120,-0.005,-0.239,2.176,9.391,2.229,0.000,4.131
a,58255,0.000,0.000,36.000,-0.033,-0.035,0.631,2.195,9.367,2.248,0.000,4.175
a,58260,0.000,0.000,36.000,0.013,-0.127,1.303,2.198,9.389,2.242,0.000,4.131
a,58264,0.000,0.000,36.000,0.074,-0.081,0.677,2.210,9.383,2.235,0.000,4.570
a,58267,0.000,0.000,36.000,-0.079,0.026,0.967,2.186,9.367,2.247,0.000,4.175
a,58272,0.000,0.000,36.000,-0.109,0.026,-0.025,2.182,9.360,2.252,0.000,4.175
a,58275,0.000,0.000,36.000,-0.094,-0.142,0.417,2.189,9.382,2.252,0.000,4.175
a,58279,0.000,0.000,36.000,0.288,-0.371,0.417,2.186,9.365,2.233,0.000,4.570
a,58284,0.000,0.000,36.000,-0.048,0.041,0.524,2.189,9.355,2.249,0.000,4.131
a,58288,0.000,0.000,36.000,0.059,0.087,0.341,2.186,9.372,2.234,0.000,4.526
a,58291,0.000,0.000,36.000,-0.124,0.072,-0.453,2.182,9.395,2.218,0.000,4.175
a,58295,0.000,0.000,36.000,0.059,0.011,-1.445,2.207,9.390,2.241,0.000,4.131
a,58299,0.000,0.000,36.000,-0.170,-0.035,-0.895,2.186,9.372,2.242,0.000,4.526
a,58303,0.000,0.000,36.000,-0.048,-0.157,-0.789,2.192,9.363,2.247,0.000,4.175
a,58307,0.000,0.000,36.000,0.013,0.056,0.143,2.207,9.377,2.241,0.000,4.219
a,58311,0.000,0.000,36.000,0.242,-0.035,0.341,2.194,9.383,2.229,0.000,4.526
a,58315,0.000,0.000,36.000,0.166,-0.188,-0.147,2.205,9.383,2.236,0.000,4.175
a,58320,0.000,0.000,36.000,0.013,0.026,0.463,2.168,9.337,2.258,0.000,4.526
a,58323,0.000,0.000,36.000,0.273,-0.096,-0.804,2.184,9.367,2.249,0.000,4.175
a,58327,0.000,0.000,36.000,-0.201,0.087,0.860,2.201,9.374,2.246,0.000,4.526
a,58332,0.000,0.000,36.000,-0.002,0.026,-0.178,2.210,9.384,2.231,0.000,4.570
a,58335,0.000,0.000,36.000,-0.002,-0.096,-0.453,2.188,9.390,2.255,0.000,4.219
a,58339,0.000,0.000,36.000,-0.094,-0.096,-0.071,2.182,9.396,2.233,0.000,4.526
a,58343,0.000,0.000,36.000,0.074,-0.081,0.234,2.192,9.382,2.239,0.000,4.175
a,58347,0.000,0.000,36.000,-0.048,0.087,0.570,2.170,9.409,2.237,0.000,4.570
a,58351,0.000,0.000,36.000,0.074,0.056,-0.147,2.180,9.385,2.223,0.000,4.131
a,58355,0.000,0.000,36.000,-0.033,0.011,-0.025,2.189,9.389,2.227,0.000,4.526
a,58359,0.000,0.000,36.000,-0.094,-0.157,0.204,2.194,9.388,2.265,0.000,4.131
a,58363,0.000,0.000,36.000,0.044,-0.035,-1.124,2.176,9.397,2.227,0.000,4.131
a,58367,0.000,0.000,36.000,0.013,0.072,0.799,2.174,9.366,2.235,0.000,4.526
a,58371,0.000,0.000,36.000,0.181,0.026,0.402,2.195,9.396,2.231,0.000,4.526
a,58375,0.000,0.000,36.000,-0.155,-0.157,-0.666,2.182,9.361,2.239,0.000,4.526
a,58380,0.000,0.000,36.000,0.166,-0.050,-0.743,2.167,9.388,2.198,0.000,4.131
a,58383,0.000,0.000,36.000,-0.094,0.072,0.524,2.195,9.379,2.229,0.000,4.219
a,58387,0.000,0.000,36.000,0.059,0.163,-0.804,2.170,9.372,2.227,0.000,4.131
a,58391,0.000,0.000,36.000,0.013,-0.081,0.311,2.204,9.380,2.225,0.000,4.087
a,58395,0.000,0.000,36.000,-0.002,0.133,-0.041,2.199,9.369,2.224,0.000,4.219
a,58399,0.000,0.000,36.000,0.059,0.148,0.219,2.163,9.389,2.234,0.000,4.482
a,58403,0.000,0.000,36.000,0.028,0.026,1.028,2.205,9.400,2.235,0.000,4.131
a,58408,0.000,0.000,36.000,0.166,0.133,-0.056,2.194,9.336,2.224,0.000,4.175
a,58412,0.000,0.000,36.000,-0.170,0.240,-0.529,2.188,9.389,2.215,0.000,4.175
a,58415,0.000,0.000,36.000,-0.048,0.056,-0.941,2.182,9.378,2.236,0.000,4.175
a,58419,0.000,0.000,36.000,-0.094,0.011,0.082,2.194,9.376,2.247,0.000,4.526
a,58423,0.000,0.000,36.000,0.074,0.179,0.005,2.211,9.394,2.231,0.000,4.482
a,58428,0.000,0.000,36.000,-0.017,0.026,-1.216,2.199,9.398,2.229,0.000,4.570
a,58432,0.000,0.000,36.000,-0.094,0.087,1.135,2.204,9.386,2.259,0.000,4.131
a,58436,0.000,0.000,36.000,-0.002,-0.127,0.799,2.184,9.394,2.223,0.000,4.219
a,58439,0.000,0.000,36.000,-0.002,0.316,0.555,2.179,9.383,2.234,0.000,4.570
a,58443,0.000,0.000,36.000,0.028,0.072,1.028,2.180,9.390,2.255,0.000,4.131
a,58447,0.000,0.000,36.000,0.074,0.056,-0.315,2.210,9.367,2.235,0.000,4.219
a,58451,0.000,0.000,36.000,-0.048,-0.203,-1.216,2.198,9.361,2.225,0.000,4.131
a,58455,0.000,0.000,36.000,0.074,0.011,-0.041,2.195,9.369,2.233,0.000,4.570
a,58460,0.000,0.000,36.000,0.059,-0.127,0.723,2.198,9.390,2.240,0.000,4.614
a,58463,0.000,0.000,36.000,0.044,0.194,-1.033,2.198,9.403,2.252,0.000,4.570
a,58467,0.000,0.000,36.000,-0.002,-0.020,0.799,2.179,9.378,2.231,0.000,4.219
a,58472,0.000,0.000,36.000,-0.033,0.240,0.555,2.211,9.407,2.242,0.000,4.526
a,58475,0.000,0.000,36.000,0.013,-0.035,0.570,2.207,9.377,2.239,0.000,4.570
a,58479,0.000,0.000,36.000,-0.094,0.102,-0.392,2.170,9.395,2.219,0.000,4.482
a,58483,0.000,0.000,36.000,-0.124,-0.035,-0.666,2.207,9.394,2.242,0.000,4.570
a,58487,0.000,0.000,36.000,0.105,0.011,-0.575,2.186,9.385,2.236,0.000,4.526
a,58491,0.000,0.000,36.000,0.074,-0.264,-2.163,2.219,9.374,2.236,0.000,4.131
a,58495,0.000,0.000,36.000,-0.002,0.041,0.799,2.198,9.370,2.231,0.000,4.087
a,58499,0.000,0.000,36.000,0.059,0.026,0.021,2.192,9.372,2.242,0.000,4.131
a,58504,0.000,0.000,36.000,0.013,0.072,0.692,2.213,9.373,2.235,0.000,4.570
a,58507,0.000,0.000,36.000,-0.048,0.011,-0.560,2.163,9.392,2.245,0.000,4.175
a,58512,0.000,0.000,36.000,0.013,0.133,0.616,2.195,9.395,2.239,0.000,4.175
a,58516,0.000,0.000,36.000,-0.109,-0.050,-0.514,2.213,9.388,2.239,0.000,4.175
a,58520,0.000,0.000,36.000,-0.033,-0.050,0.082,2.170,9.394,2.245,0.000,4.526
a,58524,0.000,0.000,36.000,-0.216,-0.096,-0.514,2.215,9.390,2.248,0.000,4.570
a,58527,0.000,0.000,36.000,-0.033,0.117,0.188,2.204,9.378,2.235,0.000,4.570
a,58531,0.000,0.000,36.000,0.059,-0.096,-0.682,2.215,9.361,2.239,0.000,4.526
a,58535,0.000,0.000,36.000,-0.155,0.179,-0.804,2.201,9.407,2.239,0.000,4.570
a,58539,0.000,0.000,36.000,-0.140,0.011,-0.132,2.213,9.396,2.239,0.000,4.131
a,58543,0.000,0.000,36.000,0.089,0.026,-1.292,2.207,9.392,2.236,0.000,4.526
a,58547,0.000,0.000,36.000,0.013,-0.173,0.860,2.199,9.397,2.255,0.000,4.131
a,58551,0.000,0.000,36.000,0.166,-0.020,0.402,2.195,9.392,2.223,0.000,4.131
a,58555,0.000,0.000,36.000,-0.017,0.026,-0.728,2.186,9.379,2.249,0.000,4.526
a,58559,0.000,0.000,36.000,-0.155,0.255,0.677,2.194,9.426,2.221,0.000,4.570
a,58563,0.000,0.000,36.000,-0.063,-0.142,-0.728,2.205,9.409,2.237,0.000,4.526
a,58568,0.000,0.000,36.000,0.120,0.056,0.188,2.179,9.395,2.213,0.000,4.175
a,58572,0.000,0.000,36.000,-0.216,-0.050,-0.666,2.195,9.394,2.241,0.000,4.175
a,58575,0.000,0.000,36.000,-0.109,-0.035,0.082,2.184,9.376,2.247,0.000,4.175
a,58580,0.000,0.000,36.000,-0.094,-0.066,-0.010,2.207,9.384,2.235,0.000,4.482
a,58583,0.000,0.000,36.000,-0.033,-0.142,0.417,2.201,9.385,2.233,0.000,4.131
a,58587,0.000,0.000,36.000,0.089,0.194,-1.308,2.173,9.412,2.227,0.000,4.131
a,58591,0.000,0.000,36.000,-0.246,0.133,0.616,2.213,9.382,2.229,0.000,4.614
a,58595,0.000,0.000,36.000,0.044,0.102,-2.285,2.211,9.390,2.200,0.000,4.482
a,58600,0.000,0.000,36.000,-0.048,-0.310,-1.109,2.179,9.383,2.225,0.000,4.570
a,58604,0.000,0.000,36.000,-0.094,-0.050,0.204,2.199,9.388,2.242,0.000,4.570
a,58608,0.000,0.000,36.000,-0.033,0.011,0.204,2.179,9.395,2.254,0.000,4.482
a,58611,0.000,0.000,36.000,-0.155,-0.081,-0.300,2.201,9.379,2.249,0.000,4.131
a,58615,0.000,0.000,36.000,-0.109,0.194,-0.193,2.213,9.397,2.230,0.000,4.570
a,58619,0.000,0.000,36.000,0.074,-0.188,0.723,2.188,9.406,2.229,0.000,4.570
a,58623,0.000,0.000,36.000,-0.094,-0.112,-0.437,2.180,9.380,2.247,0.000,4.131
a,58627,0.000,0.000,36.000,-0.140,-0.157,0.143,2.186,9.376,2.236,0.000,4.175
a,58631,0.000,0.000,36.000,-0.033,-0.157,-0.300,2.186,9.382,2.242,0.000,4.526
a,58635,0.000,0.000,36.000,-0.063,-0.142,-0.895,2.205,9.383,2.243,0.000,4.526
a,58639,0.000,0.000,36.000,0.089,0.133,0.891,2.205,9.380,2.221,0.000,4.526
a,58643,0.000,0.000,36.000,-0.323,0.026,-0.132,2.179,9.355,2.230,0.000,4.087
a,58647,0.000,0.000,36.000,0.013,0.056,-0.178,2.199,9.378,2.241,0.000,4.131
a,58651,0.000,0.000,36.000,-0.109,-0.173,0.692,2.201,9.398,2.229,0.000,4.219
a,58655,0.000,0.000,36.000,0.074,0.011,-0.254,2.186,9.384,2.225,0.000,4.131
a,58660,0.000,0.000,36.000,-0.033,0.011,0.036,2.176,9.384,2.225,0.000,4.175
a,58663,0.000,0.000,36.000,0.074,0.011,-0.361,2.182,9.377,2.229,0.000,4.614
a,58667,0.000,0.000,36.000,0.074,-0.066,0.952,2.182,9.398,2.229,0.000,4.043
a,58671,0.000,0.000,36.000,0.441,0.056,-0.957,2.192,9.416,2.241,0.000,4.175
a,58676,0.000,0.000,36.000,-0.155,0.011,-0.560,2.195,9.388,2.241,0.000,4.570
a,58679,0.000,0.000,36.000,0.196,0.026,1.181,2.180,9.380,2.227,0.000,4.614
a,58684,0.000,0.000,36.000,0.227,-0.234,0.784,2.182,9.395,2.234,0.000,4.219
a,58687,0.000,0.000,36.000,-0.048,0.026,0.204,2.195,9.389,2.231,0.000,4.131
a,58691,0.000,0.000,36.000,-0.323,0.240,-0.193,2.204,9.403,2.234,0.000,4.526
a,58695,0.000,0.000,36.000,-0.033,-0.173,0.860,2.189,9.380,2.230,0.000,4.526
a,58699,0.000,0.000,36.000,-0.185,-0.035,0.921,2.198,9.378,2.235,0.000,4.570
a,58703,0.000,0.000,36.000,-0.017,-0.188,-0.834,2.199,9.392,2.240,0.000,4.175
a,58707,0.000,0.000,36.000,0.074,0.117,0.112,2.189,9.385,2.242,0.000,4.131
a,58712,0.000,0.000,36.000,0.074,0.026,0.234,2.198,9.371,2.219,0.000,4.526
a,58715,0.000,0.000,36.000,0.120,0.179,-0.056,2.179,9.352,2.229,0.000,4.570
a,58720,0.000,0.000,36.000,-0.048,-0.081,-0.132,2.205,9.378,2.236,0.000,4.175
a,58724,0.000,0.000,36.000,0.120,0.056,-0.041,2.199,9.391,2.219,0.000,4.087
a,58727,0.000,0.000,36.000,-0.109,-0.142,-0.239,2.210,9.369,2.240,0.000,4.570
a,58731,0.000,0.000,36.000,-0.048,-0.081,-0.071,2.195,9.389,2.217,0.000,4.570
a,58735,0.000,0.000,36.000,0.089,-0.035,-1.018,2.211,9.390,2.246,0.000,4.570
a,58739,0.000,0.000,36.000,0.105,-0.142,-0.422,2.184,9.360,2.227,0.000,4.131
a,58743,0.000,0.000,36.000,-0.033,-0.096,-0.025,2.194,9.377,2.249,0.000,4.131
a,58747,0.000,0.000,36.000,0.166,0.148,0.494,2.188,9.398,2.224,0.000,4.570
a,58751,0.000,0.000,36.000,0.105,-0.020,0.448,2.188,9.413,2.234,0.000,4.570
a,58755,0.000,0.000,36.000,-0.094,-0.096,0.082,2.174,9.366,2.241,0.000,4.570
a,58759,0.000,0.000,36.000,-0.109,-0.081,-0.346,2.204,9.372,2.227,0.000,4.614
a,58763,0.000,0.000,36.000,0.074,-0.157,-0.193,2.192,9.371,2.260,0.000,4.087
a,58767,0.000,0.000,36.000,-0.140,-0.096,-0.025,2.207,9.403,2.241,0.000,4.219
a,58772,0.000,0.000,36.000,0.181,0.041,-0.132,2.186,9.397,2.233,0.000,4.482
a,58775,0.000,0.000,36.000,0.105,-0.081,-0.422,2.173,9.386,2.221,0.000,4.087
a,58779,0.000,0.000,36.000,-0.048,0.072,-0.025,2.199,9.383,2.227,0.000,4.175
a,58783,0.000,0.000,36.000,0.059,-0.050,-0.468,2.204,9.390,2.221,0.000,4.219
a,58787,0.000,0.000,36.000,-0.033,0.179,-0.041,2.173,9.388,2.241,0.000,4.570
a,58791,0.000,0.000,36.000,0.059,0.117,-0.590,2.199,9.373,2.245,0.000,4.175
a,58795,0.000,0.000,36.000,0.120,0.240,0.387,2.179,9.392,2.258,0.000,4.526
a,58799,0.000,0.000,36.000,0.074,-0.050,-0.086,2.194,9.367,2.223,0.000,4.175
a,58803,0.000,0.000,36.000,-0.094,0.117,0.188,2.195,9.392,2.255,0.000,4.570
a,58808,0.000,0.000,36.000,-0.094,-0.157,-0.239,2.201,9.400,2.247,0.000,4.175
a,58811,0.000,0.000,36.000,0.089,0.194,0.998,2.195,9.406,2.236,0.000,4.570
a,58815,0.000,0.000,36.000,-0.094,-0.081,0.311,2.225,9.373,2.249,0.000,4.614
a,58819,0.000,0.000,36.000,-0.109,0.041,0.311,2.184,9.390,2.200,0.000,4.570
a,58823,0.000,0.000,36.000,-0.140,0.011,0.082,2.180,9.384,2.249,0.000,4.570
a,58828,0.000,0.000,36.000,-0.033,0.072,0.250,2.215,9.404,2.233,0.000,4.219
a,58832,0.000,0.000,36.000,0.074,-0.264,-0.422,2.170,9.394,2.247,0.000,4.219
a,58836,0.000,0.000,36.000,0.166,-0.096,-0.743,2.210,9.392,2.212,0.000,4.175
a,58839,0.000,0.000,36.000,-0.033,0.087,1.410,2.157,9.369,2.230,0.000,4.175
a,58843,0.000,0.000,36.000,-0.002,-0.142,0.143,2.195,9.370,2.237,0.000,4.131
a,58847,0.000,0.000,36.000,0.120,0.072,0.402,2.213,9.384,2.219,0.000,4.614
a,58851,0.000,0.000,36.000,-0.109,-0.035,0.082,2.204,9.341,2.207,0.000,4.570
a,58855,0.000,0.000,36.000,0.074,0.011,-0.361,2.182,9.406,2.231,0.000,4.175
a,58860,0.000,0.000,36.000,-0.033,0.316,0.906,2.211,9.384,2.259,0.000,4.570
a,58863,0.000,0.000,36.000,0.089,-0.188,-1.292,2.180,9.395,2.231,0.000,4.175
a,58868,0.000,0.000,36.000,-0.109,0.041,-0.651,2.194,9.401,2.229,0.000,4.570
a,58871,0.000,0.000,36.000,0.166,-0.066,0.616,2.195,9.398,2.211,0.000,4.175
a,58875,0.000,0.000,36.000,0.074,-0.050,-0.193,2.163,9.382,2.235,0.000,4.175
a,58879,0.000,0.000,36.000,-0.109,-0.066,0.250,2.205,9.376,2.234,0.000,4.131
a,58883,0.000,0.000,36.000,0.074,0.026,0.295,2.211,9.385,2.245,0.000,4.570
a,58887,0.000,0.000,36.000,0.105,0.056,-0.529,2.170,9.373,2.241,0.000,4.131
a,58891,0.000,0.000,36.000,0.013,0.056,-0.239,2.199,9.354,2.239,0.000,4.526
a,58895,0.000,0.000,36.000,0.196,-0.249,1.120,2.188,9.359,2.217,0.000,4.175
a,58899,0.000,0.000,36.000,0.150,-0.081,-0.636,2.192,9.372,2.237,0.000,4.570
a,58903,0.000,0.000,36.000,0.013,-0.050,0.036,2.194,9.357,2.252,0.000,4.131
a,58907,0.000,0.000,36.000,-0.155,-0.173,0.845,2.170,9.383,2.230,0.000,4.526
a,58911,0.000,0.000,36.000,0.059,-0.066,0.295,2.215,9.376,2.246,0.000,4.482
a,58915,0.000,0.000,36.000,0.166,-0.066,0.448,2.188,9.384,2.211,0.000,4.526
a,58919,0.000,0.000,36.000,-0.033,-0.035,0.631,2.174,9.361,2.213,0.000,4.526
a,58923,0.000,0.000,36.000,-0.033,-0.050,-0.071,2.201,9.351,2.231,0.000,4.614
a,58928,0.000,0.000,36.000,-0.048,0.209,0.509,2.167,9.390,2.249,0.000,4.131
a,58931,0.000,0.000,36.000,0.089,0.133,-1.140,2.195,9.395,2.209,0.000,4.526
a,58935,0.000,0.000,36.000,-0.094,0.179,-0.361,2.207,9.407,2.229,0.000,4.043
a,58939,0.000,0.000,36.000,0.105,0.240,0.112,2.189,9.390,2.249,0.000,4.614
a,58943,0.000,0.000,36.000,0.105,0.041,0.677,2.176,9.376,2.252,0.000,4.131
a,58947,0.000,0.000,36.000,-0.094,0.056,-0.071,2.198,9.373,2.221,0.000,4.570
a,58951,0.000,0.000,36.000,0.105,0.133,-0.270,2.199,9.394,2.213,0.000,4.219
a,58955,0.000,0.000,36.000,-0.109,-0.066,0.631,2.201,9.398,2.229,0.000,4.614
a,58960,0.000,0.000,36.000,-0.124,0.133,-0.468,2.194,9.386,2.247,0.000,4.175
a,58964,0.000,0.000,36.000,-0.094,-0.050,0.143,2.192,9.373,2.235,0.000,4.526
a,58967,0.000,0.000,36.000,-0.109,0.087,0.799,2.199,9.397,2.236,0.000,4.175
a,58971,0.000,0.000,36.000,-0.002,0.072,-0.300,2.186,9.389,2.207,0.000,4.614
a,58975,0.000,0.000,36.000,-0.002,0.011,-0.514,2.199,9.369,2.231,0.000,4.526
a,58979,0.000,0.000,36.000,-0.048,-0.157,-0.514,2.205,9.404,2.223,0.000,4.175
a,58984,0.000,0.000,36.000,0.059,0.056,-0.911,2.180,9.378,2.241,0.000,4.043
a,58988,0.000,0.000,36.000,-0.048,0.240,0.066,2.207,9.395,2.221,0.000,4.175
a,58991,0.000,0.000,36.000,-0.170,-0.035,-0.621,2.223,9.392,2.252,0.000,4.175
a,58995,0.000,0.000,36.000,-0.002,0.041,0.692,2.170,9.395,2.247,0.000,4.570
a,58999,0.000,0.000,36.000,0.120,0.072,0.402,2.199,9.392,2.235,0.000,4.526
a,59003,0.000,0.000,36.000,0.013,-0.203,-0.132,2.235,9.407,2.239,0.000,4.570
a,59007,0.000,0.000,36.000,0.181,-0.050,0.066,2.182,9.363,2.249,0.000,4.570
a,59012,0.000,0.000,36.000,-0.140,0.026,0.356,2.186,9.366,2.227,0.000,4.175
a,59015,0.000,0.000,36.000,-0.002,-0.035,-0.178,2.184,9.365,2.246,0.000,4.570
a,59020,0.000,0.000,36.000,-0.002,0.072,-0.346,2.167,9.376,2.242,0.000,4.526
a,59023,0.000,0.000,36.000,-0.109,0.148,0.295,2.215,9.403,2.237,0.000,4.175
a,59027,0.000,0.000,36.000,0.059,-0.035,-0.147,2.188,9.378,2.207,0.000,4.175
a,59031,0.000,0.000,36.000,0.166,-0.295,0.188,2.207,9.370,2.221,0.000,4.526
a,59035,0.000,0.000,36.000,0.044,-0.188,-1.018,2.194,9.372,2.236,0.000,4.131
a,59039,0.000,0.000,36.000,-0.094,-0.127,1.898,2.189,9.380,2.231,0.000,4.175
a,59043,0.000,0.000,36.000,-0.155,-0.142,-0.132,2.195,9.351,2.237,0.000,4.614
a,59047,0.000,0.000,36.000,-0.017,0.072,-0.666,2.201,9.374,2.247,0.000,4.570
a,59051,0.000,0.000,36.000,-0.002,0.072,0.082,2.192,9.407,2.209,0.000,4.570
a,59055,0.000,0.000,36.000,0.089,0.072,-0.682,2.195,9.374,2.237,0.000,4.526
a,59059,0.000,0.000,36.000,0.120,-0.081,0.295,2.215,9.366,2.231,0.000,4.175
a,59064,0.000,0.000,36.000,0.273,-0.020,0.723,2.188,9.379,2.211,0.000,4.219
a,59067,0.000,0.000,36.000,-0.140,0.087,1.334,2.207,9.397,2.246,0.000,4.175
a,59071,0.000,0.000,36.000,-0.017,-0.142,-0.941,2.199,9.383,2.236,0.000,4.175
a,59075,0.000,0.000,36.000,-0.109,0.087,0.738,2.215,9.386,2.274,0.000,4.526
a,59079,0.000,0.000,36.000,0.059,0.072,-0.254,2.176,9.390,2.234,0.000,4.219
a,59083,0.000,0.000,36.000,0.120,0.072,0.402,2.195,9.371,2.247,0.000,4.526
a,59087,0.000,0.000,36.000,-0.048,-0.050,-0.728,2.198,9.352,2.233,0.000,4.570
a,59091,0.000,0.000,36.000,-0.231,0.072,-0.621,2.184,9.379,2.255,0.000,4.570
a,59095,0.000,0.000,36.000,0.013,0.240,0.295,2.192,9.388,2.223,0.000,4.131
a,59099,0.000,0.000,36.000,0.166,-0.020,0.295,2.211,9.386,2.215,0.000,4.131
a,59103,0.000,0.000,36.000,0.089,-0.081,-0.682,2.198,9.394,2.227,0.000,4.526
a,59108,0.000,0.000,36.000,0.059,0.194,-0.208,2.180,9.419,2.253,0.000,4.614
a,59112,0.000,0.000,36.000,0.013,0.224,0.021,2.195,9.402,2.241,0.000,4.131
a,59115,0.000,0.000,36.000,0.089,0.026,-0.575,2.201,9.376,2.218,0.000,4.570
a,59119,0.000,0.000,36.000,0.120,-0.264,-0.147,2.198,9.371,2.223,0.000,4.175
a,59124,0.000,0.000,36.000,-0.155,0.041,0.524,2.210,9.404,2.242,0.000,4.219
a,59127,0.000,0.000,36.000,0.059,0.011,-0.468,2.189,9.382,2.235,0.000,4.175
a,59132,0.000,0.000,36.000,0.074,0.056,-0.086,2.179,9.388,2.221,0.000,4.175
a,59136,0.000,0.000,36.000,-0.094,-0.127,1.089,2.219,9.366,2.237,0.000,4.175
a,59139,0.000,0.000,36.000,0.059,-0.188,0.066,2.195,9.378,2.247,0.000,4.175
a,59143,0.000,0.000,36.000,0.074,-0.066,0.143,2.217,9.365,2.239,0.000,4.570
a,59147,0.000,0.000,36.000,-0.048,0.255,0.448,2.180,9.401,2.246,0.000,4.526
a,59151,0.000,0.000,36.000,-0.002,-0.264,-0.453,2.173,9.355,2.225,0.000,4.570
a,59155,0.000,0.000,36.000,-0.063,-0.035,-0.514,2.192,9.366,2.213,0.000,4.175
a,59160,0.000,0.000,36.000,-0.048,-0.066,-0.544,2.195,9.361,2.239,0.000,4.131
a,59164,0.000,0.000,36.000,0.150,-0.081,-0.758,2.204,9.358,2.229,0.000,4.175
a,59167,0.000,0.000,36.000,0.105,-0.142,-0.361,2.182,9.364,2.223,0.000,4.175
a,59172,0.000,0.000,36.000,-0.140,0.194,0.448,2.210,9.371,2.239,0.000,4.482
a,59175,0.000,0.000,36.000,0.013,0.148,1.074,2.198,9.404,2.227,0.000,4.570
a,59179,0.000,0.000,36.000,0.074,0.056,-0.254,2.192,9.389,2.236,0.000,4.482
a,59183,0.000,0.000,36.000,-0.002,-0.035,-0.407,2.189,9.401,2.249,0.000,4.570
a,59187,0.000,0.000,36.000,-0.033,0.011,-0.025,2.173,9.380,2.231,0.000,4.614
a,59191,0.000,0.000,36.000,0.059,0.026,-0.086,2.186,9.403,2.246,0.000,4.175
a,59195,0.000,0.000,36.000,0.227,-0.020,0.555,2.189,9.379,2.247,0.000,4.175
a,59199,0.000,0.000,36.000,0.059,0.133,-0.208,2.179,9.365,2.198,0.000,4.175
a,59203,0.000,0.000,36.000,-0.155,0.026,-0.300,2.184,9.401,2.218,0.000,4.175
a,59207,0.000,0.000,36.000,0.044,-0.035,-0.468,2.173,9.374,2.227,0.000,4.614
a,59211,0.000,0.000,36.000,-0.155,-0.127,0.311,2.204,9.397,2.215,0.000,4.175
a,59215,0.000,0.000,36.000,-0.155,0.041,0.311,2.192,9.369,2.240,0.000,4.570
a,59219,0.000,0.000,36.000,0.074,-0.142,0.295,2.198,9.380,2.245,0.000,4.614
a,59224,0.000,0.000,36.000,-0.094,0.026,0.570,2.192,9.367,2.239,0.000,4.131
a,59227,0.000,0.000,36.000,-0.155,-0.341,0.311,2.188,9.354,2.249,0.000,4.087
a,59231,0.000,0.000,36.000,0.288,0.117,0.570,2.186,9.366,2.245,0.000,4.526
a,59235,0.000,0.000,36.000,0.013,0.041,1.578,2.194,9.412,2.236,0.000,4.570
a,59239,0.000,0.000,36.000,-0.109,-0.081,0.036,2.198,9.366,2.240,0.000,4.526
a,59243,0.000,0.000,36.000,-0.033,0.011,0.204,2.186,9.337,2.223,0.000,4.219
a,59247,0.000,0.000,36.000,-0.109,0.072,-0.407,2.195,9.389,2.231,0.000,4.175
a,59251,0.000,0.000,36.000,-0.201,-0.081,0.799,2.174,9.376,2.223,0.000,4.219
a,59255,0.000,0.000,36.000,0.105,-0.066,0.295,2.210,9.372,2.243,0.000,4.175
a,59260,0.000,0.000,36.000,-0.124,0.072,0.967,2.186,9.385,2.210,0.000,4.482
a,59264,0.000,0.000,36.000,0.013,-0.081,0.738,2.188,9.402,2.227,0.000,4.175
a,59267,0.000,0.000,36.000,0.166,-0.096,-0.682,2.217,9.395,2.249,0.000,4.131
a,59271,0.000,0.000,36.000,0.074,0.117,-0.437,2.182,9.377,2.252,0.000,4.526
a,59275,0.000,0.000,36.000,0.074,0.041,1.288,2.194,9.380,2.249,0.000,4.614
a,59279,0.000,0.000,36.000,-0.109,0.072,0.082,2.180,9.374,2.230,0.000,4.614
a,59284,0.000,0.000,36.000,-0.002,-0.096,-1.430,2.179,9.376,2.249,0.000,4.570
a,59288,0.000,0.000,36.000,-0.155,0.209,0.677,2.184,9.383,2.234,0.000,4.570
a,59291,0.000,0.000,36.000,-0.033,-0.081,0.250,2.213,9.388,2.233,0.000,4.482
a,59295,0.000,0.000,36.000,0.227,-0.096,-0.682,2.180,9.382,2.231,0.000,4.482
a,59299,0.000,0.000,36.000,0.013,-0.050,0.082,2.210,9.380,2.239,0.000,4.131
a,59303,0.000,0.000,36.000,0.013,0.056,0.082,2.188,9.388,2.239,0.000,4.526
a,59307,0.000,0.000,36.000,0.013,-0.050,-0.071,2.176,9.388,2.236,0.000,4.526
a,59311,0.000,0.000,36.000,-0.033,0.026,0.463,2.189,9.391,2.254,0.000,4.131
a,59316,0.000,0.000,36.000,-0.017,-0.035,1.196,2.189,9.396,2.258,0.000,4.570
a,59320,0.000,0.000,36.000,-0.002,0.011,-0.560,2.170,9.382,2.247,0.000,4.131
a,59323,0.000,0.000,36.000,-0.109,-0.096,-1.430,2.210,9.388,2.239,0.000,4.175
a,59328,0.000,0.000,36.000,-0.109,-0.050,-0.560,2.180,9.395,2.233,0.000,4.175
a,59331,0.000,0.000,36.000,-0.109,-0.142,0.143,2.192,9.390,2.221,0.000,4.482
a,59335,0.000,0.000,36.000,-0.017,-0.081,-0.666,2.213,9.383,2.247,0.000,4.175
a,59339,0.000,0.000,36.000,-0.109,0.056,-0.453,2.207,9.373,2.235,0.000,4.570
a,59343,0.000,0.000,36.000,0.181,-0.096,-0.086,2.188,9.402,2.241,0.000,4.175
a,59347,0.000,0.000,36.000,-0.201,-0.081,0.311,2.213,9.414,2.231,0.000,4.570
a,59351,0.000,0.000,36.000,-0.002,0.041,0.692,2.194,9.392,2.223,0.000,4.131
a,59355,0.000,0.000,36.000,0.242,-0.157,-0.086,2.189,9.359,2.233,0.000,4.131
a,59359,0.000,0.000,36.000,-0.048,-0.142,-0.346,2.194,9.370,2.218,0.000,4.219
a,59363,0.000,0.000,36.000,0.227,0.041,0.509,2.204,9.383,2.234,0.000,4.175
a,59367,0.000,0.000,36.000,0.028,-0.081,0.921,2.195,9.388,2.258,0.000,4.131
a,59371,0.000,0.000,36.000,0.074,0.117,0.112,2.179,9.378,2.216,0.000,4.570
a,59376,0.000,0.000,36.000,-0.094,0.179,-0.147,2.179,9.400,2.241,0.000,4.614
a,59379,0.000,0.000,36.000,0.166,0.148,0.494,2.207,9.401,2.211,0.000,4.131
a,59383,0.000,0.000,36.000,0.059,-0.188,-0.193,2.182,9.397,2.227,0.000,4.570
a,59387,0.000,0.000,36.000,0.013,0.026,0.417,2.198,9.370,2.225,0.000,4.526
a,59391,0.000,0.000,36.000,-0.033,0.011,-0.239,2.195,9.388,2.248,0.000,4.570
a,59395,0.000,0.000,36.000,0.150,0.133,-0.865,2.184,9.379,2.217,0.000,4.526
a,59399,0.000,0.000,36.000,0.150,-0.035,-1.247,2.210,9.400,2.243,0.000,4.570
a,59403,0.000,0.000,36.000,-0.033,-0.234,0.967,2.195,9.403,2.230,0.000,4.175
a,59408,0.000,0.000,36.000,0.013,0.041,1.242,2.192,9.398,2.231,0.000,4.175
a,59412,0.000,0.000,36.000,-0.094,-0.066,0.097,2.201,9.413,2.245,0.000,4.526
a,59415,0.000,0.000,36.000,0.013,-0.096,-0.132,2.182,9.395,2.241,0.000,4.219
a,59419,0.000,0.000,36.000,0.181,0.041,0.952,2.201,9.383,2.224,0.000,4.175
a,59423,0.000,0.000,36.000,-0.094,0.179,0.021,2.211,9.373,2.219,0.000,4.570
a,59428,0.000,0.000,36.000,0.074,0.117,-0.376,2.180,9.403,2.216,0.000,4.131
a,59432,0.000,0.000,36.000,0.013,-0.050,-0.239,2.198,9.380,2.213,0.000,4.570
a,59435,0.000,0.000,36.000,0.166,0.011,-0.743,2.192,9.400,2.225,0.000,4.482
a,59439,0.000,0.000,36.000,0.013,0.148,0.952,2.207,9.370,2.240,0.000,4.175
a,59443,0.000,0.000,36.000,-0.094,-0.050,0.143,2.204,9.400,2.231,0.000,4.570
a,59447,0.000,0.000,36.000,0.273,-0.249,-0.041,2.180,9.389,2.246,0.000,4.175
a,59451,0.000,0.000,36.000,-0.002,-0.356,0.204,2.189,9.376,2.218,0.000,4.570
a,59455,0.000,0.000,36.000,0.013,-0.050,-0.132,2.188,9.384,2.225,0.000,4.087
a,59459,0.000,0.000,36.000,0.120,-0.157,0.188,2.188,9.391,2.239,0.000,4.526
a,59464,0.000,0.000,36.000,0.028,0.026,0.967,2.207,9.402,2.261,0.000,4.570
a,59467,0.000,0.000,36.000,-0.109,-0.142,0.204,2.210,9.397,2.236,0.000,4.175
a,59472,0.000,0.000,36.000,-0.094,-0.096,-0.025,2.192,9.392,2.225,0.000,4.131
a,59475,0.000,0.000,36.000,-0.002,0.209,-0.621,2.210,9.361,2.247,0.000,4.570
a,59479,0.000,0.000,36.000,-0.094,-0.050,0.204,2.213,9.391,2.252,0.000,4.570
a,59483,0.000,0.000,36.000,0.105,-0.081,0.066,2.170,9.351,2.247,0.000,4.570
a,59487,0.000,0.000,36.000,0.105,-0.188,-0.422,2.189,9.397,2.217,0.000,4.175
a,59491,0.000,0.000,36.000,0.013,-0.173,1.410,2.199,9.369,2.227,0.000,4.570
a,59495,0.000,0.000,36.000,-0.094,0.011,0.036,2.176,9.395,2.235,0.000,4.570
a,59499,0.000,0.000,36.000,0.105,-0.096,-0.575,2.207,9.420,2.241,0.000,4.131
a,59503,0.000,0.000,36.000,-0.155,0.255,0.448,2.195,9.392,2.240,0.000,4.175
a,59507,0.000,0.000,36.000,-0.002,-0.142,-0.132,2.194,9.383,2.234,0.000,4.526
a,59511,0.000,0.000,36.000,-0.002,-0.035,0.036,2.192,9.390,2.236,0.000,4.175
a,59516,0.000,0.000,36.000,0.089,0.072,-0.957,2.182,9.389,2.243,0.000,4.570
a,59519,0.000,0.000,36.000,-0.017,0.072,0.921,2.211,9.392,2.216,0.000,4.526
a,59523,0.000,0.000,36.000,0.013,-0.157,-0.407,2.207,9.373,2.235,0.000,4.526
a,59527,0.000,0.000,36.000,0.059,-0.203,-0.804,2.194,9.377,2.248,0.000,4.131
a,59531,0.000,0.000,36.000,0.059,0.011,-0.682,2.211,9.370,2.247,0.000,4.526
a,59535,0.000,0.000,36.000,0.166,-0.310,-0.911,2.192,9.409,2.233,0.000,4.131
a,59539,0.000,0.000,36.000,-0.048,-0.050,-1.323,2.204,9.380,2.225,0.000,4.614
a,59543,0.000,0.000,36.000,0.074,0.133,0.433,2.205,9.349,2.227,0.000,4.526
a,59547,0.000,0.000,36.000,-0.094,-0.050,-0.239,2.182,9.357,2.239,0.000,4.175
a,59551,0.000,0.000,36.000,-0.155,-0.035,-0.178,2.188,9.380,2.234,0.000,4.175
a,59555,0.000,0.000,36.000,0.105,0.209,0.540,2.182,9.415,2.236,0.000,4.175
a,59560,0.000,0.000,36.000,0.013,-0.081,0.692,2.198,9.361,2.188,0.000,4.570
a,59563,0.000,0.000,36.000,-0.109,-0.127,0.692,2.188,9.403,2.223,0.000,4.526
a,59567,0.000,0.000,36.000,0.166,-0.066,0.295,2.217,9.372,2.261,0.000,4.131
a,59571,0.000,0.000,36.000,-0.079,0.133,1.288,2.182,9.389,2.241,0.000,4.526
a,59575,0.000,0.000,36.000,-0.002,0.011,-0.514,2.176,9.377,2.233,0.000,4.658
a,59580,0.000,0.000,36.000,-0.002,-0.035,-0.025,2.204,9.378,2.227,0.000,4.175
a,59584,0.000,0.000,36.000,-0.048,-0.096,-0.666,2.192,9.349,2.249,0.000,4.175
a,59587,0.000,0.000,36.000,0.059,-0.264,-1.063,2.201,9.364,2.241,0.000,4.570
a,59591,0.000,0.000,36.000,0.150,0.072,-1.186,2.194,9.370,2.253,0.000,4.219
a,59595,0.000,0.000,36.000,-0.048,-0.356,-0.132,2.201,9.366,2.217,0.000,4.570
a,59599,0.000,0.000,36.000,0.135,-0.081,1.227,2.207,9.410,2.219,0.000,4.219
a,59603,0.000,0.000,36.000,-0.201,-0.035,0.356,2.215,9.367,2.241,0.000,4.175
a,59607,0.000,0.000,36.000,-0.140,-0.035,0.524,2.189,9.392,2.236,0.000,4.219
a,59612,0.000,0.000,36.000,-0.216,0.209,0.784,2.221,9.395,2.230,0.000,4.570
a,59616,0.000,0.000,36.000,0.074,0.011,0.066,2.174,9.406,2.227,0.000,4.526
a,59619,0.000,0.000,36.000,0.013,0.102,-0.224,2.199,9.422,2.207,0.000,4.131
a,59623,0.000,0.000,36.000,-0.033,-0.050,0.204,2.182,9.406,2.252,0.000,4.526
a,59628,0.000,0.000,36.000,-0.109,-0.279,0.356,2.192,9.392,2.230,0.000,4.570
a,59631,0.000,0.000,36.000,0.013,-0.203,-0.300,2.207,9.389,2.236,0.000,4.526
a,59635,0.000,0.000,36.000,-0.094,-0.081,0.524,2.210,9.373,2.229,0.000,4.570
a,59639,0.000,0.000,36.000,-0.201,0.011,-0.407,2.167,9.396,2.225,0.000,4.570
a,59643,0.000,0.000,36.000,-0.216,-0.066,0.463,2.198,9.376,2.231,0.000,4.131
a,59647,0.000,0.000,36.000,-0.124,-0.035,-0.453,2.182,9.370,2.203,0.000,4.131
a,59651,0.000,0.000,36.000,0.059,0.194,-0.056,2.198,9.378,2.255,0.000,4.175
a,59655,0.000,0.000,36.000,0.105,-0.020,0.402,2.221,9.392,2.249,0.000,4.219
a,59659,0.000,0.000,36.000,-0.109,0.117,-0.743,2.199,9.392,2.216,0.000,4.219
a,59663,0.000,0.000,36.000,-0.201,0.011,-0.178,2.179,9.364,2.247,0.000,4.526
a,59667,0.000,0.000,36.000,0.105,-0.081,-0.147,2.189,9.380,2.247,0.000,4.570
a,59672,0.000,0.000,36.000,0.089,-0.249,-0.911,2.199,9.372,2.224,0.000,4.570
a,59675,0.000,0.000,36.000,0.013,0.148,1.440,2.188,9.386,2.224,0.000,4.175
a,59679,0.000,0.000,36.000,0.013,-0.035,0.463,2.195,9.377,2.231,0.000,4.219
a,59683,0.000,0.000,36.000,0.013,0.041,1.349,2.189,9.389,2.243,0.000,4.526
a,59687,0.000,0.000,36.000,0.120,0.148,0.891,2.201,9.390,2.217,0.000,4.175
a,59691,0.000,0.000,36.000,-0.109,-0.020,0.631,2.184,9.403,2.234,0.000,4.526
a,59695,0.000,0.000,36.000,0.074,0.133,0.662,2.186,9.371,2.235,0.000,4.570
a,59699,0.000,0.000,36.000,-0.124,0.026,-1.659,2.170,9.372,2.211,0.000,4.526
a,59703,0.000,0.000,36.000,-0.048,-0.020,0.250,2.184,9.378,2.231,0.000,4.175
a,59707,0.000,0.000,36.000,0.150,0.072,-0.957,2.198,9.389,2.209,0.000,4.087
a,59712,0.000,0.000,36.000,0.089,-0.142,-1.018,2.186,9.404,2.240,0.000,4.175
a,59715,0.000,0.000,36.000,-0.094,0.011,0.082,2.198,9.364,2.242,0.000,4.131
a,59719,0.000,0.000,36.000,-0.002,-0.035,-0.071,2.211,9.408,2.249,0.000,4.175
a,59723,0.000,0.000,36.000,-0.094,0.056,0.036,2.180,9.373,2.225,0.000,4.175
a,59727,0.000,0.000,36.000,0.059,0.117,-0.758,2.182,9.370,2.239,0.000,4.131
a,59732,0.000,0.000,36.000,-0.308,0.041,0.921,2.176,9.383,2.240,0.000,4.175
a,59736,0.000,0.000,36.000,-0.124,0.072,-1.231,2.186,9.386,2.242,0.000,4.175
a,59739,0.000,0.000,36.000,0.059,0.087,0.295,2.180,9.386,2.213,0.000,4.526
a,59743,0.000,0.000,36.000,-0.155,-0.096,-0.789,2.213,9.377,2.248,0.000,4.614
a,59747,0.000,0.000,36.000,-0.109,0.087,0.311,2.188,9.389,2.247,0.000,4.526
a,59751,0.000,0.000,36.000,0.074,0.194,0.601,2.194,9.369,2.236,0.000,4.570
a,59755,0.000,0.000,36.000,-0.109,0.087,0.738,2.211,9.366,2.247,0.000,4.526
a,59759,0.000,0.000,36.000,0.120,-0.142,0.234,2.210,9.385,2.247,0.000,4.614
a,59763,0.000,0.000,36.000,-0.109,-0.203,-1.277,2.205,9.391,2.239,0.000,4.175
a,59768,0.000,0.000,36.000,0.105,0.056,-0.743,2.194,9.347,2.245,0.000,4.219
a,59772,0.000,0.000,36.000,0.074,-0.081,0.784,2.207,9.392,2.233,0.000,4.570
a,59775,0.000,0.000,36.000,0.013,-0.050,-0.071,2.217,9.376,2.245,0.000,4.570
a,59780,0.000,0.000,36.000,-0.109,0.117,-1.613,2.182,9.416,2.223,0.000,4.570
a,59783,0.000,0.000,36.000,-0.048,0.194,-0.315,2.184,9.380,2.224,0.000,4.570
a,59787,0.000,0.000,36.000,0.105,-0.050,-0.636,2.184,9.367,2.235,0.000,4.570
a,59791,0.000,0.000,36.000,-0.017,-0.081,-0.560,2.207,9.384,2.229,0.000,4.570
a,59795,0.000,0.000,36.000,-0.002,-0.050,-0.666,2.176,9.373,2.217,0.000,4.570
a,59799,0.000,0.000,36.000,-0.140,-0.096,0.036,2.213,9.391,2.247,0.000,4.570
a,59803,0.000,0.000,36.000,-0.155,0.117,-0.636,2.211,9.377,2.245,0.000,4.570
a,59807,0.000,0.000,36.000,-0.033,-0.096,0.585,2.194,9.351,2.233,0.000,4.526
a,59811,0.000,0.000,36.000,0.059,-0.020,0.433,2.207,9.396,2.221,0.000,4.175
a,59815,0.000,0.000,36.000,0.074,-0.096,0.066,2.207,9.373,2.245,0.000,4.570
a,59819,0.000,0.000,36.000,-0.308,-0.020,0.860,2.192,9.365,2.217,0.000,4.131
a,59823,0.000,0.000,36.000,-0.094,0.240,0.555,2.189,9.374,2.231,0.000,4.175
a,59828,0.000,0.000,36.000,0.059,-0.341,0.555,2.176,9.378,2.209,0.000,4.526
a,59831,0.000,0.000,36.000,-0.216,0.026,-0.025,2.201,9.395,2.211,0.000,4.614
a,59835,0.000,0.000,36.000,-0.201,-0.203,-0.407,2.179,9.376,2.236,0.000,4.175
a,59839,0.000,0.000,36.000,-0.033,0.133,0.509,2.198,9.382,2.223,0.000,4.570
a,59843,0.000,0.000,36.000,-0.094,0.087,0.967,2.207,9.365,2.227,0.000,4.219
a,59847,0.000,0.000,36.000,-0.094,0.194,0.234,2.188,9.396,2.239,0.000,4.175
a,59851,0.000,0.000,36.000,0.227,-0.035,-0.041,2.184,9.408,2.234,0.000,4.482
a,59855,0.000,0.000,36.000,-0.246,0.011,-0.300,2.186,9.407,2.236,0.000,4.570
a,59860,0.000,0.000,36.000,0.105,-0.173,-1.048,2.188,9.379,2.235,0.000,4.175
a,59863,0.000,0.000,36.000,-0.002,-0.020,0.677,2.215,9.425,2.236,0.000,4.131
a,59867,0.000,0.000,36.000,-0.002,-0.142,-0.071,2.204,9.408,2.230,0.000,4.219
a,59872,0.000,0.000,36.000,0.074,-0.142,0.402,2.184,9.364,2.221,0.000,4.219
a,59875,0.000,0.000,36.000,-0.048,-0.173,0.631,2.201,9.395,2.246,0.000,4.570
a,59880,0.000,0.000,36.000,-0.048,0.179,-0.804,2.192,9.357,2.227,0.000,4.526
a,59884,0.000,0.000,36.000,0.166,0.072,-0.193,2.194,9.378,2.229,0.000,4.131
a,59887,0.000,0.000,36.000,0.135,0.011,1.624,2.207,9.374,2.245,0.000,4.175
a,59891,0.000,0.000,36.000,-0.246,0.179,-1.995,2.207,9.380,2.223,0.000,4.175
a,59895,0.000,0.000,36.000,0.089,-0.173,-1.781,2.199,9.370,2.227,0.000,4.087
a,59899,0.000,0.000,36.000,-0.216,-0.096,-0.453,2.221,9.378,2.254,0.000,4.570
a,59903,0.000,0.000,36.000,-0.094,0.072,0.738,2.217,9.366,2.241,0.000,4.570
a,59908,0.000,0.000,36.000,-0.231,0.072,0.860,2.199,9.414,2.221,0.000,4.175
a,59912,0.000,0.000,36.000,-0.002,0.072,0.036,2.186,9.380,2.229,0.000,4.526
a,59915,0.000,0.000,36.000,-0.140,-0.157,-0.346,2.184,9.402,2.216,0.000,4.175
a,59920,0.000,0.000,36.000,0.227,0.056,-0.743,2.194,9.404,2.229,0.000,4.482
a,59923,0.000,0.000,36.000,-0.048,0.362,0.341,2.195,9.397,2.230,0.000,4.175
a,59927,0.000,0.000,36.000,0.074,0.362,0.937,2.199,9.374,2.230,0.000,4.570
a,59931,0.000,0.000,36.000,-0.033,-0.203,-0.025,2.204,9.392,2.223,0.000,4.175
a,59935,0.000,0.000,36.000,0.059,0.072,0.066,2.182,9.403,2.227,0.000,4.175
a,59939,0.000,0.000,36.000,-0.262,-0.157,-0.453,2.201,9.410,2.239,0.000,4.570
a,59943,0.000,0.000,36.000,-0.094,0.026,0.524,2.189,9.397,2.267,0.000,4.526
a,59947,0.000,0.000,36.000,-0.216,0.041,0.784,2.170,9.369,2.234,0.000,4.526
a,59951,0.000,0.000,36.000,0.089,-0.081,-0.804,2.198,9.351,2.223,0.000,4.570
a,59955,0.000,0.000,36.000,-0.124,0.072,-0.789,2.180,9.389,2.242,0.000,4.175
a,59959,0.000,0.000,36.000,-0.002,-0.020,0.692,2.189,9.361,2.236,0.000,4.526
a,59963,0.000,0.000,36.000,-0.048,-0.142,-0.407,2.184,9.389,2.243,0.000,4.219
a,59968,0.000,0.000,36.000,0.013,0.041,1.089,2.192,9.395,2.237,0.000,4.570
a,59971,0.000,0.000,36.000,0.059,0.072,0.021,2.186,9.390,2.242,0.000,4.526
a,59975,0.000,0.000,36.000,-0.002,-0.035,-0.025,2.195,9.364,2.247,0.000,4.570
a,59979,0.000,0.000,36.000,0.059,-0.050,-0.636,2.184,9.370,2.231,0.000,4.087
a,59983,0.000,0.000,36.000,0.074,0.148,1.211,2.179,9.392,2.231,0.000,4.175
a,59987,0.000,0.000,36.000,0.013,0.148,1.181,2.201,9.407,2.213,0.000,4.175
a,59991,0.000,0.000,36.000,-0.155,-0.127,0.692,2.194,9.379,2.246,0.000,4.175
a,59995,0.000,0.000,36.000,-0.002,-0.142,-0.346,2.168,9.384,2.201,0.000,4.570
a,59999,0.000,0.000,36.000,0.105,-0.295,-0.193,2.188,9.401,2.227,0.000,4.482
a,60003,0.000,0.000,36.000,-0.094,0.316,1.181,2.179,9.380,2.223,0.000,4.219
a,60007,0.000,0.000,36.000,-0.155,-0.066,0.417,2.210,9.390,2.240,0.000,4.131
a,60011,0.000,0.000,36.000,0.120,-0.035,0.784,2.182,9.378,2.233,0.000,4.658
a,60016,0.000,0.000,36.000,0.181,0.224,0.051,2.186,9.400,2.252,0.000,4.175
a,60020,0.000,0.000,36.000,-0.017,-0.249,-1.277,2.221,9.404,2.237,0.000,4.570
a,60023,0.000,0.000,36.000,0.013,0.133,0.402,2.217,9.400,2.227,0.000,4.175
a,60027,0.000,0.000,36.000,0.105,-0.203,-0.529,2.219,9.382,2.236,0.000,4.175
a,60031,0.000,0.000,36.000,-0.048,0.087,0.463,2.194,9.380,2.237,0.000,4.482
a,60035,0.000,0.000,36.000,0.089,0.194,-1.033,2.179,9.392,2.234,0.000,4.175
a,60039,0.000,0.000,36.000,0.135,0.240,0.937,2.179,9.419,2.212,0.000,4.526
a,60044,0.000,0.000,36.000,-0.033,0.011,0.143,2.192,9.391,2.235,0.000,4.175
a,60048,0.000,0.000,36.000,0.120,0.194,0.433,2.205,9.382,2.235,0.000,4.658
a,60051,0.000,0.000,36.000,-0.231,-0.081,1.135,2.182,9.384,2.221,0.000,4.570
a,60055,0.000,0.000,36.000,-0.338,0.133,-0.804,2.152,9.394,2.242,0.000,4.526
a,60059,0.000,0.000,36.000,0.227,-0.157,-0.850,2.186,9.374,2.210,0.000,4.526
a,60064,0.000,0.000,36.000,-0.017,0.072,-0.621,2.182,9.395,2.224,0.000,4.570
a,60067,0.000,0.000,36.000,0.074,-0.035,0.723,2.192,9.377,2.241,0.000,4.175
a,60072,0.000,0.000,36.000,0.120,-0.310,-0.086,2.184,9.384,2.241,0.000,4.570
a,60075,0.000,0.000,36.000,-0.216,0.117,-1.018,2.186,9.390,2.227,0.000,4.570
a,60079,0.000,0.000,36.000,0.074,0.240,0.540,2.201,9.366,2.252,0.000,4.526
a,60083,0.000,0.000,36.000,-0.033,-0.035,0.463,2.186,9.369,2.231,0.000,4.219
a,60087,0.000,0.000,36.000,0.013,0.026,0.524,2.199,9.360,2.239,0.000,4.570
a,60091,0.000,0.000,36.000,0.059,-0.020,0.234,2.195,9.354,2.224,0.000,4.526
a,60095,0.000,0.000,36.000,-0.109,0.056,-0.728,2.194,9.390,2.245,0.000,4.570
a,60099,0.000,0.000,36.000,0.166,0.041,0.509,2.219,9.365,2.249,0.000,4.087
a,60103,0.000,0.000,36.000,0.105,-0.081,-0.254,2.201,9.370,2.246,0.000,4.570
a,60107,0.000,0.000,36.000,-0.155,-0.127,0.417,2.174,9.380,2.242,0.000,4.175
a,60111,0.000,0.000,36.000,0.013,-0.035,0.417,2.213,9.384,2.264,0.000,4.526
a,60115,0.000,0.000,36.000,-0.094,0.056,-0.071,2.188,9.370,2.231,0.000,4.131
a,60119,0.000,0.000,36.000,0.013,0.087,1.028,2.195,9.370,2.243,0.000,4.526
a,60124,0.000,0.000,36.000,-0.109,-0.035,0.036,2.195,9.386,2.252,0.000,4.526
a,60127,0.000,0.000,36.000,0.257,0.133,0.830,2.204,9.364,2.239,0.000,4.570
a,60131,0.000,0.000,36.000,-0.094,0.117,0.021,2.179,9.390,2.231,0.000,4.087
a,60135,0.000,0.000,36.000,-0.017,-0.142,-0.514,2.192,9.358,2.234,0.000,4.219
a,60139,0.000,0.000,36.000,0.059,-0.249,-0.254,2.221,9.398,2.247,0.000,4.526
a,60143,0.000,0.000,36.000,-0.185,0.056,-1.766,2.184,9.364,2.229,0.000,4.570
a,60147,0.000,0.000,36.000,0.166,-0.142,-0.147,2.163,9.383,2.247,0.000,4.219
a,60151,0.000,0.000,36.000,-0.262,0.072,-0.407,2.192,9.390,2.246,0.000,4.175
a,60155,0.000,0.000,36.000,0.227,-0.157,-0.529,2.207,9.367,2.252,0.000,4.570
a,60160,0.000,0.000,36.000,0.089,0.240,-0.544,2.215,9.390,2.217,0.000,4.131
a,60163,0.000,0.000,36.000,-0.201,-0.310,-0.025,2.205,9.383,2.204,0.000,4.131
a,60167,0.000,0.000,36.000,-0.048,-0.050,-0.728,2.176,9.363,2.231,0.000,4.570
a,60171,0.000,0.000,36.000,0.105,-0.035,-0.193,2.184,9.384,2.218,0.000,4.131
a,60175,0.000,0.000,36.000,-0.201,0.011,-0.239,2.201,9.376,2.239,0.000,4.526
a,60180,0.000,0.000,36.000,0.262,0.248,-0.995,2.195,9.386,2.237,0.000,4.219
a,60184,0.000,0.000,36.000,0.003,-0.119,0.730,2.204,9.364,2.229,0.000,4.570
a,60187,0.000,0.000,36.000,0.277,-0.027,0.058,2.194,9.378,2.223,0.000,4.614
a,60191,0.000,0.000,36.000,0.003,0.019,-0.568,2.192,9.397,2.248,0.000,4.570
a,60195,0.000,0.000,36.000,0.003,0.034,-0.140,2.199,9.389,2.213,0.000,4.175
a,60199,0.000,0.000,36.000,-0.303,0.019,-0.140,2.198,9.371,2.221,0.000,4.526
a,60203,0.000,0.000,36.000,0.125,-0.134,0.394,2.184,9.373,2.247,0.000,4.219
a,60207,0.000,0.000,36.000,0.064,-0.073,0.013,2.219,9.378,2.227,0.000,4.526
a,60212,0.000,0.000,36.000,0.232,0.080,0.181,2.189,9.384,2.230,0.000,4.570
a,60216,0.000,0.000,36.000,-0.043,-0.073,-0.079,2.233,9.390,2.236,0.000,4.219
a,60220,0.000,0.000,36.000,-0.028,0.141,0.226,2.199,9.396,2.241,0.000,4.614
a,60224,0.000,0.000,36.000,0.170,-0.027,0.119,2.184,9.394,2.243,0.000,4.526
a,60227,0.000,0.000,36.000,0.125,-0.149,-0.369,2.195,9.410,2.233,0.000,4.570
a,60231,0.000,0.000,36.000,0.018,0.080,0.348,2.225,9.371,2.213,0.000,4.131
a,60235,0.000,0.000,36.000,0.064,-0.027,-0.262,2.189,9.407,2.224,0.000,4.175
a,60239,0.000,0.000,36.000,0.109,-0.058,0.822,2.229,9.403,2.218,0.000,4.219
a,60243,0.000,0.000,36.000,-0.150,0.034,0.196,2.225,9.397,2.240,0.000,4.570
a,60247,0.000,0.000,36.000,-0.028,-0.134,0.562,2.205,9.370,2.242,0.000,4.175
a,60251,0.000,0.000,36.000,0.170,0.309,-0.354,2.194,9.397,2.231,0.000,4.175
a,60255,0.000,0.000,36.000,-0.043,-0.043,-1.117,2.188,9.378,2.267,0.000,4.175
a,60259,0.000,0.000,36.000,-0.211,0.064,-0.949,2.194,9.376,2.227,0.000,4.219
a,60263,0.000,0.000,36.000,0.018,0.034,0.562,2.205,9.376,2.264,0.000,4.175
a,60267,0.000,0.000,36.000,0.232,-0.027,0.119,2.189,9.379,2.221,0.000,4.087
a,60271,0.000,0.000,36.000,0.018,-0.134,0.242,2.186,9.355,2.212,0.000,4.175
a,60275,0.000,0.000,36.000,0.064,0.034,0.058,2.180,9.366,2.224,0.000,4.570
a,60280,0.000,0.000,36.000,-0.089,0.141,0.287,2.195,9.392,2.235,0.000,4.219
a,60283,0.000,0.000,36.000,0.232,-0.195,-0.644,2.205,9.378,2.219,0.000,4.526
a,60287,0.000,0.000,36.000,0.094,0.080,1.066,2.192,9.367,2.233,0.000,4.219
a,60291,0.000,0.000,36.000,-0.028,0.125,0.058,2.199,9.378,2.225,0.000,4.219
a,60295,0.000,0.000,36.000,-0.043,-0.027,-0.033,2.189,9.386,2.213,0.000,4.087
a,60299,0.000,0.000,36.000,0.125,-0.180,0.394,2.189,9.400,2.239,0.000,4.175
a,60303,0.000,0.000,36.000,-0.013,0.034,-0.797,2.186,9.394,2.237,0.000,4.570
a,60307,0.000,0.000,36.000,-0.028,0.293,-0.262,2.199,9.383,2.235,0.000,4.175
a,60312,0.000,0.000,36.000,-0.303,-0.043,0.135,2.188,9.389,2.248,0.000,4.175
a,60315,0.000,0.000,36.000,-0.028,-0.027,0.730,2.207,9.409,2.242,0.000,4.131
a,60320,0.000,0.000,36.000,0.003,-0.149,-0.903,2.211,9.396,2.248,0.000,4.570
a,60323,0.000,0.000,36.000,-0.013,-0.134,0.913,2.192,9.388,2.249,0.000,4.526
a,60327,0.000,0.000,36.000,0.064,0.064,-0.812,2.207,9.369,2.264,0.000,4.570
a,60331,0.000,0.000,36.000,0.048,-0.073,-0.537,2.189,9.374,2.240,0.000,4.175
a,60336,0.000,0.000,36.000,-0.196,0.125,-0.094,2.201,9.378,2.247,0.000,4.570
a,60340,0.000,0.000,36.000,0.109,-0.027,-0.369,2.179,9.376,2.231,0.000,4.526
a,60343,0.000,0.000,36.000,0.170,-0.088,-0.919,2.186,9.376,2.252,0.000,4.526
a,60347,0.000,0.000,36.000,0.170,-0.058,0.608,2.176,9.395,2.217,0.000,4.175
a,60351,0.000,0.000,36.000,-0.089,0.034,0.303,2.189,9.370,2.247,0.000,4.175
a,60356,0.000,0.000,36.000,-0.013,-0.134,-1.331,2.174,9.376,2.236,0.000,4.570
a,60360,0.000,0.000,36.000,0.079,0.019,0.058,2.207,9.388,2.242,0.000,4.219
a,60363,0.000,0.000,36.000,-0.028,0.141,0.501,2.195,9.385,2.233,0.000,4.570
a,60368,0.000,0.000,36.000,0.003,0.080,-0.415,2.186,9.398,2.237,0.000,4.219
a,60371,0.000,0.000,36.000,-0.043,-0.073,-0.033,2.180,9.413,2.224,0.000,4.526
a,60375,0.000,0.000,36.000,0.003,0.125,-0.476,2.167,9.367,2.241,0.000,4.570
a,60379,0.000,0.000,36.000,-0.226,0.141,-0.919,2.180,9.386,2.237,0.000,4.570
a,60383,0.000,0.000,36.000,-0.043,-0.088,-1.010,2.223,9.396,2.210,0.000,4.526
a,60387,0.000,0.000,36.000,-0.089,0.080,0.791,2.205,9.383,2.248,0.000,4.570
a,60391,0.000,0.000,36.000,-0.211,-0.088,-0.568,2.199,9.365,2.235,0.000,4.175
a,60395,0.000,0.000,36.000,-0.074,0.034,0.913,2.207,9.373,2.245,0.000,4.570
a,60399,0.000,0.000,36.000,-0.043,0.202,0.058,2.186,9.392,2.231,0.000,4.526
a,60403,0.000,0.000,36.000,0.064,-0.119,0.547,2.179,9.394,2.217,0.000,4.570
a,60407,0.000,0.000,36.000,0.109,0.019,-0.919,2.204,9.392,2.236,0.000,4.570
a,60411,0.000,0.000,36.000,0.125,-0.058,1.066,2.189,9.383,2.229,0.000,4.570
a,60415,0.000,0.000,36.000,0.216,-0.073,-1.026,2.195,9.404,2.243,0.000,4.526
a,60419,0.000,0.000,36.000,0.186,0.049,1.387,2.215,9.404,2.252,0.000,4.526
a,60424,0.000,0.000,36.000,0.018,-0.073,0.303,2.199,9.416,2.213,0.000,4.131
a,60427,0.000,0.000,36.000,0.064,0.125,-1.041,2.195,9.360,2.248,0.000,4.570
a,60431,0.000,0.000,36.000,0.186,0.049,1.326,2.182,9.390,2.236,0.000,4.175
a,60435,0.000,0.000,36.000,-0.211,0.156,0.226,2.157,9.380,2.230,0.000,4.526
a,60439,0.000,0.000,36.000,-0.089,-0.134,0.410,2.194,9.391,2.231,0.000,4.570
a,60443,0.000,0.000,36.000,0.232,0.034,-0.430,2.195,9.390,2.224,0.000,4.131
a,60447,0.000,0.000,36.000,0.170,-0.134,-0.094,2.164,9.380,2.253,0.000,4.570
a,60451,0.000,0.000,36.000,0.109,-0.058,0.440,2.182,9.370,2.231,0.000,4.570
a,60455,0.000,0.000,36.000,0.064,-0.165,0.333,2.198,9.376,2.234,0.000,4.570
a,60459,0.000,0.000,36.000,-0.150,-0.027,0.074,2.195,9.390,2.236,0.000,4.526
a,60463,0.000,0.000,36.000,0.125,-0.134,0.394,2.184,9.378,2.204,0.000,4.131
a,60468,0.000,0.000,36.000,0.109,0.019,-0.965,2.152,9.388,2.248,0.000,4.526
a,60472,0.000,0.000,36.000,-0.135,-0.195,-0.033,2.213,9.378,2.239,0.000,4.526
a,60475,0.000,0.000,36.000,-0.104,0.095,0.684,2.182,9.369,2.218,0.000,4.175
a,60479,0.000,0.000,36.000,-0.043,0.080,-0.140,2.176,9.364,2.237,0.000,4.131
a,60483,0.000,0.000,36.000,-0.135,-0.195,-0.247,2.215,9.394,2.233,0.000,4.175
a,60487,0.000,0.000,36.000,0.232,0.034,0.013,2.182,9.341,2.237,0.000,4.131
a,60491,0.000,0.000,36.000,0.003,0.324,0.287,2.170,9.397,2.236,0.000,4.570
a,60496,0.000,0.000,36.000,-0.028,-0.073,0.303,2.170,9.410,2.252,0.000,4.219
a,60500,0.000,0.000,36.000,0.003,-0.043,-0.461,2.184,9.385,2.225,0.000,4.614
a,60503,0.000,0.000,36.000,0.003,0.186,-0.583,2.201,9.377,2.219,0.000,4.570
a,60507,0.000,0.000,36.000,0.079,-0.348,0.226,2.194,9.377,2.245,0.000,4.131
a,60511,0.000,0.000,36.000,0.170,-0.027,0.119,2.198,9.376,2.253,0.000,4.131
a,60515,0.000,0.000,36.000,-0.028,0.186,-0.262,2.186,9.406,2.216,0.000,4.175
a,60519,0.000,0.000,36.000,-0.120,0.080,1.188,2.205,9.367,2.229,0.000,4.131
a,60523,0.000,0.000,36.000,0.109,0.064,-0.583,2.199,9.378,2.223,0.000,4.614
a,60527,0.000,0.000,36.000,0.003,0.141,-0.369,2.210,9.407,2.242,0.000,4.570
a,60531,0.000,0.000,36.000,0.018,-0.012,1.020,2.204,9.389,2.259,0.000,4.526
a,60535,0.000,0.000,36.000,0.018,-0.058,1.234,2.210,9.386,2.227,0.000,4.175
a,60539,0.000,0.000,36.000,0.018,-0.027,0.455,2.158,9.416,2.216,0.000,4.175
a,60543,0.000,0.000,36.000,0.003,-0.180,-0.308,2.194,9.370,2.243,0.000,4.614
a,60547,0.000,0.000,36.000,0.064,-0.043,-1.346,2.163,9.355,2.229,0.000,4.526
a,60551,0.000,0.000,36.000,-0.089,0.049,1.081,2.174,9.404,2.234,0.000,4.175
a,60555,0.000,0.000,36.000,-0.043,0.019,-0.903,2.176,9.371,2.213,0.000,4.131
a,60560,0.000,0.000,36.000,-0.028,-0.027,0.684,2.182,9.383,2.216,0.000,4.658
a,60563,0.000,0.000,36.000,0.018,-0.088,0.135,2.184,9.373,2.219,0.000,4.570
a,60567,0.000,0.000,36.000,-0.043,-0.043,-1.056,2.189,9.400,2.231,0.000,4.570
a,60571,0.000,0.000,36.000,0.125,0.019,-0.201,2.195,9.395,2.210,0.000,4.131
a,60576,0.000,0.000,36.000,0.064,0.034,0.181,2.173,9.386,2.249,0.000,4.614
a,60580,0.000,0.000,36.000,0.247,-0.088,-0.155,2.189,9.370,2.231,0.000,4.131
a,60583,0.000,0.000,36.000,-0.074,0.034,1.188,2.204,9.406,2.231,0.000,4.570
a,60587,0.000,0.000,36.000,-0.028,0.141,0.669,2.174,9.392,2.245,0.000,4.219
a,60591,0.000,0.000,36.000,-0.013,0.141,1.173,2.205,9.361,2.217,0.000,4.570
a,60595,0.000,0.000,36.000,-0.104,-0.012,0.455,2.180,9.355,2.224,0.000,4.526
a,60599,0.000,0.000,36.000,0.186,0.248,0.654,2.168,9.391,2.229,0.000,4.570
a,60603,0.000,0.000,36.000,0.094,-0.348,-1.346,2.195,9.374,2.259,0.000,4.526
a,60607,0.000,0.000,36.000,-0.059,-0.241,-0.736,2.164,9.401,2.236,0.000,4.570
a,60612,0.000,0.000,36.000,-0.043,-0.073,0.196,2.182,9.354,2.230,0.000,4.131
a,60615,0.000,0.000,36.000,0.003,-0.012,0.730,2.194,9.376,2.231,0.000,4.175
a,60620,0.000,0.000,36.000,0.354,-0.256,0.119,2.192,9.377,2.225,0.000,4.526
a,60623,0.000,0.000,36.000,-0.089,-0.088,0.028,2.180,9.370,2.233,0.000,4.526
a,60627,0.000,0.000,36.000,-0.089,-0.088,-0.140,2.210,9.370,2.207,0.000,4.526
a,60631,0.000,0.000,36.000,-0.165,-0.027,-0.965,2.192,9.363,2.252,0.000,4.526
a,60635,0.000,0.000,36.000,-0.135,0.049,1.020,2.201,9.415,2.205,0.000,4.131
a,60639,0.000,0.000,36.000,-0.104,-0.012,0.684,2.210,9.352,2.230,0.000,4.526
a,60643,0.000,0.000,36.000,0.003,-0.180,-0.079,2.176,9.366,2.221,0.000,4.526
a,60647,0.000,0.000,36.000,0.018,0.049,1.127,2.199,9.413,2.224,0.000,4.482
a,60651,0.000,0.000,36.000,0.277,-0.241,-0.094,2.201,9.380,2.223,0.000,4.131
a,60655,0.000,0.000,36.000,0.155,0.080,-0.812,2.173,9.380,2.218,0.000,4.175
a,60659,0.000,0.000,36.000,-0.089,0.019,0.074,2.195,9.382,2.242,0.000,4.570
a,60663,0.000,0.000,36.000,-0.104,0.202,-0.323,2.180,9.369,2.247,0.000,4.526
a,60667,0.000,0.000,36.000,0.109,-0.088,-1.407,2.192,9.371,2.254,0.000,4.175
a,60672,0.000,0.000,36.000,0.232,0.202,-0.339,2.204,9.370,2.243,0.000,4.219
a,60675,0.000,0.000,36.000,0.125,-0.043,-0.262,2.167,9.353,2.248,0.000,4.175
a,60679,0.000,0.000,36.000,-0.104,0.202,0.119,2.189,9.379,2.230,0.000,4.526
a,60683,0.000,0.000,36.000,0.064,0.095,0.287,2.207,9.386,2.249,0.000,4.175
a,60687,0.000,0.000,36.000,-0.135,0.110,-0.064,2.174,9.369,2.219,0.000,4.526
a,60691,0.000,0.000,36.000,-0.211,-0.027,0.135,2.229,9.379,2.217,0.000,4.175
a,60695,0.000,0.000,36.000,-0.211,0.217,0.608,2.229,9.390,2.229,0.000,4.570
a,60699,0.000,0.000,36.000,-0.211,0.248,-0.430,2.189,9.394,2.242,0.000,4.526
a,60703,0.000,0.000,36.000,-0.165,-0.180,-0.629,2.199,9.389,2.231,0.000,4.526
a,60707,0.000,0.000,36.000,-0.150,0.141,-0.201,2.184,9.395,2.215,0.000,4.175
a,60712,0.000,0.000,36.000,0.048,0.080,-0.644,2.188,9.376,2.259,0.000,4.482
a,60716,0.000,0.000,36.000,0.018,-0.027,0.303,2.198,9.391,2.223,0.000,4.175
a,60719,0.000,0.000,36.000,0.079,0.080,0.287,2.179,9.382,2.258,0.000,4.570
a,60723,0.000,0.000,36.000,0.125,0.064,0.058,2.167,9.396,2.241,0.000,4.175
a,60727,0.000,0.000,36.000,0.170,-0.012,0.379,2.184,9.394,2.218,0.000,4.570
a,60732,0.000,0.000,36.000,-0.104,-0.073,-0.079,2.194,9.384,2.236,0.000,4.570
a,60736,0.000,0.000,36.000,0.277,-0.134,-0.323,2.179,9.408,2.227,0.000,4.570
a,60740,0.000,0.000,36.000,-0.089,-0.043,0.028,2.182,9.388,2.245,0.000,4.570
a,60743,0.000,0.000,36.000,-0.120,-0.027,-0.949,2.201,9.365,2.247,0.000,4.131
a,60747,0.000,0.000,36.000,0.003,0.049,0.348,2.199,9.384,2.261,0.000,4.570
a,60751,0.000,0.000,36.000,0.277,-0.134,-0.201,2.217,9.366,2.255,0.000,4.087
a,60755,0.000,0.000,36.000,0.247,0.125,-0.445,2.174,9.400,2.223,0.000,4.570
a,60760,0.000,0.000,36.000,-0.120,-0.027,-1.224,2.194,9.386,2.242,0.000,4.219
a,60763,0.000,0.000,36.000,0.079,-0.027,0.608,2.174,9.357,2.221,0.000,4.175
a,60768,0.000,0.000,36.000,0.170,-0.058,0.547,2.173,9.386,2.237,0.000,4.570
a,60771,0.000,0.000,36.000,0.064,0.034,-0.369,2.210,9.369,2.223,0.000,4.570
a,60775,0.000,0.000,36.000,0.277,0.141,-0.064,2.199,9.383,2.240,0.000,4.087
a,60779,0.000,0.000,36.000,-0.089,0.064,-0.140,2.211,9.378,2.248,0.000,4.570
a,60783,0.000,0.000,36.000,-0.135,0.080,0.242,2.188,9.407,2.242,0.000,4.526
a,60787,0.000,0.000,36.000,-0.257,0.003,-1.102,2.174,9.379,2.254,0.000,4.526
a,60791,0.000,0.000,36.000,0.003,-0.043,-0.629,2.198,9.378,2.223,0.000,4.175
a,60795,0.000,0.000,36.000,-0.196,0.080,0.791,2.192,9.395,2.233,0.000,4.175
a,60799,0.000,0.000,36.000,0.170,0.064,-0.751,2.186,9.355,2.245,0.000,4.614
a,60803,0.000,0.000,36.000,-0.074,0.080,1.295,2.186,9.382,2.223,0.000,4.175
a,60807,0.000,0.000,36.000,0.323,-0.134,-0.537,2.186,9.386,2.221,0.000,4.570
a,60811,0.000,0.000,36.000,0.064,-0.088,-1.300,2.189,9.373,2.225,0.000,4.175
a,60816,0.000,0.000,36.000,-0.043,0.064,-1.438,2.198,9.402,2.231,0.000,4.570
a,60819,0.000,0.000,36.000,0.079,0.080,0.333,2.199,9.380,2.242,0.000,4.570
a,60823,0.000,0.000,36.000,-0.089,0.080,0.242,2.184,9.395,2.231,0.000,4.131
a,60827,0.000,0.000,36.000,-0.089,-0.043,-0.140,2.207,9.396,2.212,0.000,4.131
a,60831,0.000,0.000,36.000,-0.089,0.232,0.058,2.207,9.385,2.258,0.000,4.087
a,60835,0.000,0.000,36.000,0.293,-0.180,0.501,2.194,9.403,2.225,0.000,4.614
a,60839,0.000,0.000,36.000,-0.028,0.080,0.242,2.195,9.407,2.249,0.000,4.570
a,60843,0.000,0.000,36.000,0.048,-0.134,-0.690,2.174,9.346,2.236,0.000,4.131
a,60847,0.000,0.000,36.000,0.018,0.034,0.623,2.194,9.391,2.213,0.000,4.219
a,60851,0.000,0.000,36.000,0.079,0.034,0.226,2.186,9.373,2.231,0.000,4.175
a,60855,0.000,0.000,36.000,0.247,0.019,0.119,2.189,9.367,2.235,0.000,4.175
a,60860,0.000,0.000,36.000,-0.043,0.034,0.135,2.198,9.392,2.252,0.000,4.570
a,60863,0.000,0.000,36.000,0.003,0.232,-0.583,2.168,9.384,2.241,0.000,4.570
a,60867,0.000,0.000,36.000,0.064,-0.134,0.181,2.189,9.394,2.259,0.000,4.219
a,60872,0.000,0.000,36.000,-0.104,0.034,0.028,2.211,9.389,2.236,0.000,4.526
a,60875,0.000,0.000,36.000,0.003,-0.043,-0.522,2.174,9.395,2.242,0.000,4.131
a,60879,0.000,0.000,36.000,0.018,0.141,0.715,2.207,9.385,2.260,0.000,4.131
a,60884,0.000,0.000,36.000,-0.165,-0.134,-0.522,2.205,9.390,2.253,0.000,4.570
a,60887,0.000,0.000,36.000,0.109,0.080,-0.262,2.184,9.386,2.230,0.000,4.175
a,60891,0.000,0.000,36.000,-0.150,0.049,0.791,2.188,9.395,2.218,0.000,4.526
a,60896,0.000,0.000,36.000,-0.043,0.049,0.303,2.189,9.364,2.246,0.000,4.175
a,60899,0.000,0.000,36.000,-0.013,-0.073,-0.797,2.194,9.395,2.218,0.000,4.570
a,60903,0.000,0.000,36.000,-0.104,-0.043,-0.629,2.205,9.400,2.235,0.000,4.131
a,60907,0.000,0.000,36.000,0.170,-0.165,0.547,2.211,9.341,2.240,0.000,4.570
a,60912,0.000,0.000,36.000,-0.043,-0.058,0.623,2.186,9.370,2.243,0.000,4.526
a,60915,0.000,0.000,36.000,-0.043,-0.027,0.074,2.195,9.355,2.221,0.000,4.131
a,60920,0.000,0.000,36.000,0.109,0.064,-0.583,2.188,9.380,2.247,0.000,4.175
a,60923,0.000,0.000,36.000,0.109,-0.012,0.394,2.199,9.383,2.249,0.000,4.175
a,60927,0.000,0.000,36.000,0.064,0.049,0.715,2.194,9.389,2.252,0.000,4.526
a,60931,0.000,0.000,36.000,0.003,-0.165,0.455,2.182,9.383,2.236,0.000,4.526
a,60935,0.000,0.000,36.000,-0.211,-0.088,-0.461,2.198,9.382,2.235,0.000,4.175
a,60939,0.000,0.000,36.000,0.079,-0.134,0.287,2.217,9.382,2.241,0.000,4.131
a,60943,0.000,0.000,36.000,0.109,0.309,-0.445,2.215,9.401,2.231,0.000,4.131
a,60947,0.000,0.000,36.000,0.018,-0.195,-0.186,2.192,9.349,2.236,0.000,4.131
a,60951,0.000,0.000,36.000,-0.211,-0.027,-0.033,2.189,9.397,2.249,0.000,4.175
a,60955,0.000,0.000,36.000,0.094,0.202,-0.980,2.182,9.384,2.258,0.000,4.175
a,60959,0.000,0.000,36.000,-0.135,0.186,0.013,2.198,9.406,2.239,0.000,4.570
a,60963,0.000,0.000,36.000,0.018,-0.149,0.028,2.189,9.382,2.255,0.000,4.614
a,60967,0.000,0.000,36.000,0.018,-0.302,0.074,2.204,9.382,2.216,0.000,4.175
a,60972,0.000,0.000,36.000,0.247,0.019,-0.262,2.182,9.373,2.227,0.000,4.570
a,60975,0.000,0.000,36.000,0.170,0.217,0.211,2.188,9.376,2.234,0.000,4.570
a,60979,0.000,0.000,36.000,-0.104,0.019,-0.568,2.188,9.383,2.233,0.000,4.131
a,60983,0.000,0.000,36.000,-0.043,0.064,-1.499,2.182,9.391,2.223,0.000,4.482
a,60987,0.000,0.000,36.000,0.064,-0.027,0.058,2.168,9.352,2.246,0.000,4.570
a,60991,0.000,0.000,36.000,-0.089,0.141,0.333,2.219,9.367,2.229,0.000,4.175
a,60995,0.000,0.000,36.000,0.003,-0.195,-0.629,2.158,9.396,2.227,0.000,4.219
a,60999,0.000,0.000,36.000,0.186,0.019,0.181,2.198,9.382,2.236,0.000,4.131
a,61003,0.000,0.000,36.000,0.064,-0.241,-0.048,2.204,9.394,2.234,0.000,4.526
a,61007,0.000,0.000,36.000,0.109,0.156,0.654,2.182,9.403,2.253,0.000,4.087
a,61012,0.000,0.000,36.000,0.064,0.019,-0.751,2.184,9.359,2.198,0.000,4.175
a,61015,0.000,0.000,36.000,-0.211,-0.027,0.196,2.195,9.401,2.227,0.000,4.570
a,61019,0.000,0.000,36.000,-0.104,0.080,-0.247,2.173,9.386,2.215,0.000,4.175
a,61023,0.000,0.000,36.000,0.094,-0.134,-0.858,2.173,9.395,2.242,0.000,4.570
a,61027,0.000,0.000,36.000,0.277,-0.027,-0.201,2.207,9.378,2.223,0.000,4.175
a,61032,0.000,0.000,36.000,0.109,0.202,0.165,2.184,9.352,2.223,0.000,4.131
a,61036,0.000,0.000,36.000,0.079,-0.241,0.501,2.184,9.404,2.248,0.000,4.526
a,61040,0.000,0.000,36.000,-0.028,-0.088,0.211,2.210,9.366,2.260,0.000,4.570
a,61043,0.000,0.000,36.000,0.018,-0.027,0.303,2.179,9.414,2.236,0.000,4.570
a,61047,0.000,0.000,36.000,-0.150,-0.165,0.455,2.198,9.360,2.223,0.000,4.570
a,61051,0.000,0.000,36.000,-0.043,0.064,-1.331,2.201,9.370,2.219,0.000,4.175
a,61055,0.000,0.000,36.000,-0.120,0.034,-0.736,2.199,9.392,2.255,0.000,4.175
a,61060,0.000,0.000,36.000,0.079,0.064,-0.048,2.213,9.392,2.229,0.000,4.219
a,61064,0.000,0.000,36.000,-0.028,0.064,0.196,2.201,9.361,2.219,0.000,4.526
a,61067,0.000,0.000,36.000,0.186,0.034,0.226,2.198,9.409,2.210,0.000,4.131
a,61072,0.000,0.000,36.000,-0.135,-0.088,-2.048,2.204,9.394,2.237,0.000,4.175
a,61075,0.000,0.000,36.000,0.003,0.049,0.242,2.201,9.376,2.240,0.000,4.526
a,61079,0.000,0.000,36.000,-0.242,-0.027,0.791,2.198,9.389,2.227,0.000,4.131
a,61083,0.000,0.000,36.000,0.079,-0.088,-0.430,2.192,9.377,2.236,0.000,4.570
a,61087,0.000,0.000,36.000,-0.104,-0.073,-0.079,2.198,9.384,2.237,0.000,4.131
a,61091,0.000,0.000,36.000,0.109,-0.272,0.547,2.205,9.351,2.234,0.000,4.570
a,61095,0.000,0.000,36.000,0.048,-0.134,-0.537,2.195,9.379,2.249,0.000,4.175
a,61099,0.000,0.000,36.000,0.232,0.217,0.700,2.205,9.380,2.217,0.000,4.175
a,61103,0.000,0.000,36.000,-0.150,-0.149,-0.522,2.213,9.357,2.258,0.000,4.131
a,61107,0.000,0.000,36.000,0.109,-0.012,0.333,2.201,9.380,2.236,0.000,4.131
a,61111,0.000,0.000,36.000,0.064,0.019,-0.644,2.201,9.384,2.216,0.000,4.526
a,61115,0.000,0.000,36.000,0.277,0.080,-0.048,2.189,9.389,2.231,0.000,4.570
a,61119,0.000,0.000,36.000,0.003,-0.043,-0.797,2.189,9.376,2.217,0.000,4.570
a,61124,0.000,0.000,36.000,0.003,-0.058,0.684,2.210,9.389,2.236,0.000,4.570
a,61127,0.000,0.000,36.000,0.003,0.095,0.348,2.199,9.398,2.218,0.000,4.175
a,61131,0.000,0.000,36.000,0.125,0.034,0.333,2.176,9.367,2.242,0.000,4.131
a,61135,0.000,0.000,36.000,-0.028,-0.180,0.623,2.195,9.404,2.239,0.000,4.614
a,61139,0.000,0.000,36.000,0.064,0.141,-0.110,2.189,9.351,2.231,0.000,4.482
a,61143,0.000,0.000,36.000,-0.104,0.095,0.684,2.192,9.384,2.252,0.000,4.570
a,61147,0.000,0.000,36.000,-0.028,0.186,0.013,2.180,9.371,2.225,0.000,4.570
a,61151,0.000,0.000,36.000,-0.196,-0.012,1.188,2.179,9.372,2.242,0.000,4.526
a,61155,0.000,0.000,36.000,-0.028,-0.134,0.730,2.205,9.398,2.233,0.000,4.570
a,61159,0.000,0.000,36.000,0.003,-0.027,0.135,2.179,9.395,2.234,0.000,4.175
a,61163,0.000,0.000,36.000,-0.104,0.156,0.440,2.184,9.370,2.224,0.000,4.175
a,61167,0.000,0.000,36.000,-0.196,0.186,-0.262,2.210,9.402,2.225,0.000,4.175
a,61172,0.000,0.000,36.000,-0.196,-0.134,0.516,2.194,9.354,2.227,0.000,4.175
a,61176,0.000,0.000,36.000,-0.043,0.186,-0.583,2.199,9.355,2.225,0.000,4.219
a,61179,0.000,0.000,36.000,0.018,0.019,-0.247,2.223,9.389,2.217,0.000,4.570
a,61183,0.000,0.000,36.000,-0.135,-0.149,0.074,2.179,9.380,2.239,0.000,4.087
a,61187,0.000,0.000,36.000,-0.089,-0.012,1.020,2.199,9.369,2.218,0.000,4.175
a,61191,0.000,0.000,36.000,0.018,0.248,0.547,2.207,9.385,2.242,0.000,4.614
a,61196,0.000,0.000,36.000,0.277,-0.058,2.150,2.163,9.367,2.233,0.000,4.131
a,61200,0.000,0.000,36.000,-0.150,-0.088,-1.178,2.221,9.373,2.245,0.000,4.131
a,61203,0.000,0.000,36.000,-0.288,0.248,1.219,2.221,9.392,2.227,0.000,4.175
a,61208,0.000,0.000,36.000,0.247,-0.043,-0.094,2.194,9.367,2.242,0.000,4.570
a,61211,0.000,0.000,36.000,-0.104,-0.180,-0.354,2.207,9.389,2.230,0.000,4.482
a,61215,0.000,0.000,36.000,0.079,0.202,0.211,2.194,9.349,2.258,0.000,4.131
a,61219,0.000,0.000,36.000,-0.013,-0.134,-0.629,2.188,9.372,2.231,0.000,4.175
a,61223,0.000,0.000,36.000,-0.089,-0.027,0.623,2.217,9.396,2.255,0.000,4.175
a,61227,0.000,0.000,36.000,-0.089,0.049,1.570,2.179,9.360,2.278,0.000,4.219
a,61231,0.000,0.000,36.000,-0.104,-0.073,-0.079,2.198,9.364,2.240,0.000,4.482
a,61235,0.000,0.000,36.000,-0.150,-0.226,0.562,2.194,9.403,2.223,0.000,4.526
a,61239,0.000,0.000,36.000,-0.043,0.095,0.791,2.170,9.386,2.253,0.000,4.570
a,61243,0.000,0.000,36.000,0.033,0.248,1.768,2.194,9.392,2.233,0.000,4.570
a,61247,0.000,0.000,36.000,0.064,0.125,-1.361,2.199,9.363,2.217,0.000,4.175
a,61251,0.000,0.000,36.000,-0.104,0.125,-0.537,2.186,9.357,2.247,0.000,4.175
a,61255,0.000,0.000,36.000,-0.089,0.080,0.303,2.211,9.407,2.223,0.000,4.131
a,61259,0.000,0.000,36.000,-0.150,0.141,-0.201,2.194,9.366,2.237,0.000,4.175
a,61264,0.000,0.000,36.000,0.155,-0.027,-0.537,2.195,9.389,2.231,0.000,4.175
a,61268,0.000,0.000,36.000,-0.089,-0.073,0.623,2.199,9.385,2.241,0.000,4.131
a,61271,0.000,0.000,36.000,-0.104,-0.027,0.074,2.157,9.369,2.230,0.000,4.526
a,61275,0.000,0.000,36.000,0.277,-0.088,-0.751,2.201,9.377,2.227,0.000,4.570
a,61279,0.000,0.000,36.000,-0.104,0.095,0.516,2.201,9.390,2.246,0.000,4.175
a,61284,0.000,0.000,36.000,0.048,0.080,-0.644,2.198,9.376,2.261,0.000,4.570
a,61288,0.000,0.000,36.000,-0.028,-0.027,0.303,2.170,9.425,2.247,0.000,4.526
a,61291,0.000,0.000,36.000,0.064,0.034,-0.323,2.225,9.358,2.227,0.000,4.219
a,61295,0.000,0.000,36.000,0.018,-0.119,0.852,2.188,9.369,2.224,0.000,4.526
