HEADER,TIME_MS,SV_DRV,SV_STR,SV_STD,SWP_SG,SV_POS,GY_ROLL,GY_YAW,GY_PITCH,ACC_X,ACC_Y,ACC_Z
a,77904,0.000,0.000,36.000,0.000,4.087,-0.023,-0.058,-0.375,2.219,9.339,2.188
a,77908,0.000,0.000,36.000,0.000,4.087,0.084,-0.134,0.739,2.215,9.324,2.200
a,77911,0.000,0.000,36.000,0.000,3.999,0.022,0.018,-0.711,2.203,9.305,2.188
a,77915,0.000,0.000,36.000,0.000,4.043,0.038,-0.195,0.709,2.218,9.339,2.192
a,77919,0.000,0.000,36.000,0.000,4.131,-0.023,-0.104,0.434,2.193,9.310,2.182
a,77923,0.000,0.000,36.000,0.000,3.999,-0.039,0.064,-0.162,2.224,9.361,2.205
a,77927,0.000,0.000,36.000,0.000,4.043,0.084,0.140,0.251,2.230,9.346,2.185
a,77931,0.000,0.000,36.000,0.000,3.999,0.068,0.171,-0.620,2.222,9.322,2.200
a,77935,0.000,0.000,36.000,0.000,4.087,-0.039,-0.211,-1.139,2.217,9.319,2.194
a,77940,0.000,0.000,36.000,0.000,4.043,-0.130,0.079,1.274,2.210,9.324,2.205
a,77944,0.000,0.000,36.000,0.000,4.087,0.084,0.079,1.411,2.215,9.330,2.189
a,77947,0.000,0.000,36.000,0.000,4.043,-0.023,0.171,0.220,2.228,9.335,2.207
a,77952,0.000,0.000,36.000,0.000,4.087,0.175,-0.363,0.205,2.212,9.301,2.217
a,77956,0.000,0.000,36.000,0.000,4.087,0.038,0.003,0.220,2.209,9.307,2.188
a,77959,0.000,0.000,36.000,0.000,4.087,0.053,0.079,1.212,2.219,9.349,2.213
a,77963,0.000,0.000,36.000,0.000,4.131,-0.023,0.049,0.113,2.224,9.301,2.200
a,77967,0.000,0.000,36.000,0.000,4.087,0.190,0.079,0.312,2.197,9.322,2.201
a,77971,0.000,0.000,36.000,0.000,4.131,0.022,-0.195,0.434,2.246,9.305,2.178
a,77975,0.000,0.000,36.000,0.000,3.999,-0.039,0.171,0.052,2.212,9.327,2.206
a,77979,0.000,0.000,36.000,0.000,3.955,0.084,-0.272,-0.131,2.193,9.330,2.207
a,77983,0.000,0.000,36.000,0.000,4.043,0.022,-0.134,-0.009,2.219,9.335,2.205
a,77987,0.000,0.000,36.000,0.000,4.131,0.251,0.385,-0.085,2.233,9.325,2.201
a,77991,0.000,0.000,36.000,0.000,4.087,0.038,0.232,0.205,2.230,9.316,2.191
a,77995,0.000,0.000,36.000,0.000,4.131,0.145,-0.165,-0.070,2.215,9.351,2.233
a,78000,0.000,0.000,36.000,0.000,4.043,-0.069,-0.089,0.266,2.212,9.328,2.192
a,78004,0.000,0.000,36.000,0.000,3.999,0.038,-0.119,-0.223,2.228,9.286,2.215
a,78007,0.000,0.000,36.000,0.000,4.087,-0.084,-0.058,-0.650,2.240,9.342,2.213
a,78011,0.000,0.000,36.000,0.000,4.087,-0.146,-0.119,-0.650,2.225,9.339,2.185
a,78015,0.000,0.000,36.000,0.000,4.043,-0.039,0.079,0.495,2.210,9.327,2.191
a,78019,0.000,0.000,36.000,0.000,4.043,0.084,0.125,0.312,2.230,9.337,2.215
a,78023,0.000,0.000,36.000,0.000,4.087,0.175,-0.104,-0.620,2.209,9.313,2.204
a,78027,0.000,0.000,36.000,0.000,4.087,-0.039,0.034,0.602,2.237,9.327,2.206
a,78031,0.000,0.000,36.000,0.000,4.087,0.068,0.186,0.251,2.204,9.323,2.203
a,78035,0.000,0.000,36.000,0.000,3.999,0.038,-0.226,-0.268,2.218,9.301,2.204
a,78040,0.000,0.000,36.000,0.000,4.131,0.038,-0.318,0.113,2.206,9.321,2.206
a,78044,0.000,0.000,36.000,0.000,4.087,-0.207,0.110,-0.543,2.193,9.339,2.194
a,78047,0.000,0.000,36.000,0.000,4.087,-0.069,0.018,0.113,2.212,9.311,2.191
a,78051,0.000,0.000,36.000,0.000,4.175,-0.023,-0.104,0.388,2.193,9.335,2.211
a,78055,0.000,0.000,36.000,0.000,4.087,-0.130,0.232,-0.391,2.218,9.319,2.211
a,78060,0.000,0.000,36.000,0.000,4.087,-0.252,0.125,0.159,2.225,9.343,2.188
a,78064,0.000,0.000,36.000,0.000,4.087,0.068,0.079,0.586,2.240,9.305,2.218
a,78067,0.000,0.000,36.000,0.000,4.131,-0.069,-0.089,0.877,2.212,9.325,2.182
a,78072,0.000,0.000,36.000,0.000,4.043,0.190,-0.272,-0.284,2.237,9.301,2.206
a,78075,0.000,0.000,36.000,0.000,4.043,0.038,0.171,0.541,2.204,9.321,2.207
a,78079,0.000,0.000,36.000,0.000,4.043,0.145,0.034,0.693,2.215,9.331,2.211
a,78083,0.000,0.000,36.000,0.000,4.131,-0.054,-0.104,1.319,2.222,9.336,2.200
a,78087,0.000,0.000,36.000,0.000,4.043,0.068,-0.058,-1.261,2.210,9.334,2.213
a,78091,0.000,0.000,36.000,0.000,4.087,-0.115,0.079,1.319,2.218,9.317,2.207
a,78096,0.000,0.000,36.000,0.000,4.087,0.068,0.064,-0.284,2.218,9.330,2.209
a,78100,0.000,0.000,36.000,0.000,4.043,0.068,0.003,-1.368,2.230,9.303,2.188
a,78103,0.000,0.000,36.000,0.000,4.043,-0.069,-0.226,0.159,2.210,9.321,2.200
a,78108,0.000,0.000,36.000,0.000,4.087,-0.029,0.049,0.123,2.212,9.300,2.227
a,78111,0.000,0.000,36.000,0.000,4.043,0.047,-0.043,-0.534,2.235,9.330,2.184
a,78115,0.000,0.000,36.000,0.000,3.955,0.077,-0.104,0.337,2.217,9.293,2.191
a,78119,0.000,0.000,36.000,0.000,4.043,0.032,0.003,-0.091,2.212,9.319,2.201
a,78123,0.000,0.000,36.000,0.000,4.087,-0.075,0.003,0.016,2.228,9.310,2.221
a,78127,0.000,0.000,36.000,0.000,4.131,0.062,-0.058,-1.297,2.189,9.329,2.215
a,78131,0.000,0.000,36.000,0.000,4.131,-0.045,-0.226,-1.129,2.204,9.342,2.204
a,78135,0.000,0.000,36.000,0.000,4.131,0.032,-0.165,0.184,2.193,9.348,2.200
a,78139,0.000,0.000,36.000,0.000,4.131,0.062,-0.058,-0.534,2.230,9.343,2.176
a,78143,0.000,0.000,36.000,0.000,3.999,0.077,0.064,0.596,2.218,9.324,2.198
a,78147,0.000,0.000,36.000,0.000,3.955,-0.075,0.232,0.489,2.197,9.305,2.176
a,78151,0.000,0.000,36.000,0.000,4.131,-0.029,-0.317,0.566,2.230,9.321,2.206
a,78155,0.000,0.000,36.000,0.000,4.131,-0.075,-0.149,0.673,2.212,9.282,2.204
a,78160,0.000,0.000,36.000,0.000,4.131,0.077,0.018,0.550,2.206,9.348,2.227
a,78163,0.000,0.000,36.000,0.000,4.087,-0.075,-0.058,-0.411,2.203,9.325,2.201
a,78167,0.000,0.000,36.000,0.000,4.087,-0.197,0.141,0.673,2.212,9.339,2.198
a,78171,0.000,0.000,36.000,0.000,4.087,-0.152,-0.104,-0.518,2.224,9.325,2.209
a,78175,0.000,0.000,36.000,0.000,4.087,0.062,0.049,-0.488,2.234,9.325,2.219
a,78179,0.000,0.000,36.000,0.000,4.043,-0.029,0.232,0.825,2.201,9.317,2.213
a,78183,0.000,0.000,36.000,0.000,3.999,-0.029,0.003,0.184,2.197,9.317,2.198
a,78188,0.000,0.000,36.000,0.000,4.043,0.032,-0.134,0.230,2.215,9.321,2.194
a,78192,0.000,0.000,36.000,0.000,4.087,0.139,0.080,0.489,2.203,9.313,2.206
a,78195,0.000,0.000,36.000,0.000,4.131,-0.197,0.018,0.398,2.219,9.336,2.191
a,78199,0.000,0.000,36.000,0.000,4.131,-0.136,0.003,-0.152,2.191,9.307,2.206
a,78203,0.000,0.000,36.000,0.000,4.087,-0.075,0.018,-0.366,2.203,9.305,2.229
a,78207,0.000,0.000,36.000,0.000,4.087,-0.029,0.080,0.673,2.219,9.348,2.194
a,78212,0.000,0.000,36.000,0.000,4.043,-0.136,0.018,0.718,2.222,9.345,2.227
a,78216,0.000,0.000,36.000,0.000,4.043,-0.045,-0.043,-0.793,2.241,9.357,2.188
a,78219,0.000,0.000,36.000,0.000,4.043,-0.197,0.064,-0.152,2.219,9.364,2.185
a,78223,0.000,0.000,36.000,0.000,4.043,-0.045,-0.043,-0.640,2.212,9.353,2.201
a,78227,0.000,0.000,36.000,0.000,3.999,0.154,0.018,1.054,2.240,9.354,2.200
a,78231,0.000,0.000,36.000,0.000,4.043,0.047,-0.256,1.344,2.225,9.331,2.195
a,78235,0.000,0.000,36.000,0.000,3.999,-0.152,0.018,-0.747,2.199,9.349,2.179
a,78240,0.000,0.000,36.000,0.000,4.131,-0.228,-0.027,1.665,2.217,9.317,2.192
a,78244,0.000,0.000,36.000,0.000,4.043,-0.304,-0.104,-0.198,2.233,9.345,2.176
a,78247,0.000,0.000,36.000,0.000,4.043,0.139,-0.027,1.100,2.233,9.351,2.173
a,78252,0.000,0.000,36.000,0.000,4.087,0.077,-0.165,-0.106,2.222,9.321,2.213
a,78255,0.000,0.000,36.000,0.000,4.131,-0.014,-0.027,0.947,2.222,9.324,2.219
a,78259,0.000,0.000,36.000,0.000,4.043,0.245,0.018,-0.320,2.217,9.353,2.207
a,78263,0.000,0.000,36.000,0.000,4.131,-0.152,0.064,-1.068,2.201,9.351,2.204
a,78267,0.000,0.000,36.000,0.000,4.087,-0.029,0.064,-0.091,2.222,9.335,2.204
a,78271,0.000,0.000,36.000,0.000,4.043,-0.014,-0.043,0.947,2.210,9.340,2.185
a,78275,0.000,0.000,36.000,0.000,4.087,0.032,-0.104,0.459,2.222,9.354,2.207
a,78279,0.000,0.000,36.000,0.000,4.043,0.016,-0.226,-0.747,2.204,9.334,2.215
a,78283,0.000,0.000,36.000,0.000,4.131,-0.090,0.141,0.291,2.203,9.334,2.199
a,78287,0.000,0.000,36.000,0.000,4.043,-0.136,-0.104,-0.091,2.230,9.367,2.211
a,78291,0.000,0.000,36.000,0.000,4.087,-0.243,0.339,0.108,2.217,9.371,2.213
a,78295,0.000,0.000,36.000,0.000,4.131,-0.228,0.064,-1.068,2.209,9.336,2.188
a,78299,0.000,0.000,36.000,0.000,3.999,-0.075,0.003,-0.198,2.234,9.346,2.227
a,78303,0.000,0.000,36.000,0.000,4.043,-0.136,0.049,-0.152,2.246,9.360,2.182
a,78307,0.000,0.000,36.000,0.000,4.131,-0.075,0.232,0.001,2.212,9.348,2.198
a,78311,0.000,0.000,36.000,0.000,4.043,-0.197,0.110,0.123,2.249,9.304,2.213
a,78315,0.000,0.000,36.000,0.000,3.999,0.062,-0.058,-0.976,2.237,9.354,2.192
a,78319,0.000,0.000,36.000,0.000,3.955,-0.136,0.232,-0.045,2.210,9.351,2.198
a,78323,0.000,0.000,36.000,0.000,4.087,0.047,-0.149,-1.679,2.230,9.337,2.217
a,78327,0.000,0.000,36.000,0.000,3.999,0.077,-0.104,0.215,2.215,9.334,2.221
a,78331,0.000,0.000,36.000,0.000,4.043,0.077,0.018,0.169,2.228,9.345,2.198
a,78335,0.000,0.000,36.000,0.000,4.043,-0.152,0.049,-1.129,2.224,9.348,2.200
a,78340,0.000,0.000,36.000,0.000,4.043,0.032,0.125,0.398,2.191,9.334,2.198
a,78343,0.000,0.000,36.000,0.000,4.087,-0.060,0.217,0.459,2.224,9.359,2.201
a,78347,0.000,0.000,36.000,0.000,4.043,-0.136,-0.256,-0.091,2.230,9.354,2.195
a,78351,0.000,0.000,36.000,0.000,4.043,-0.152,-0.043,-0.472,2.203,9.339,2.191
a,78355,0.000,0.000,36.000,0.000,4.131,0.139,0.064,-0.427,2.248,9.357,2.175
a,78359,0.000,0.000,36.000,0.000,4.043,-0.045,0.003,-0.961,2.218,9.331,2.200
a,78363,0.000,0.000,36.000,0.000,4.087,0.016,-0.058,-0.747,2.209,9.331,2.194
a,78367,0.000,0.000,36.000,0.000,3.999,-0.152,0.064,-0.747,2.212,9.339,2.191
a,78371,0.000,0.000,36.000,0.000,4.087,-0.060,-0.043,0.947,2.219,9.342,2.213
a,78375,0.000,0.000,36.000,0.000,4.043,0.139,0.171,-0.106,2.209,9.325,2.191
a,78379,0.000,0.000,36.000,0.000,4.043,0.123,0.171,-1.144,2.222,9.335,2.207
a,78383,0.000,0.000,36.000,0.000,4.131,-0.213,-0.333,-0.793,2.219,9.321,2.211
a,78388,0.000,0.000,36.000,0.000,4.043,-0.029,0.049,0.016,2.224,9.321,2.192
a,78392,0.000,0.000,36.000,0.000,4.087,0.032,0.110,0.016,2.204,9.316,2.198
a,78395,0.000,0.000,36.000,0.000,4.131,0.123,0.125,0.001,2.225,9.366,2.176
a,78399,0.000,0.000,36.000,0.000,4.175,-0.197,-0.104,-0.259,2.224,9.364,2.198
a,78403,0.000,0.000,36.000,0.000,4.087,0.093,0.034,1.054,2.224,9.307,2.207
a,78407,0.000,0.000,36.000,0.000,4.043,-0.090,0.125,-1.236,2.228,9.354,2.195
a,78411,0.000,0.000,36.000,0.000,4.131,-0.090,0.064,-0.640,2.218,9.331,2.194
a,78415,0.000,0.000,36.000,0.000,3.999,-0.136,-0.104,0.459,2.225,9.331,2.211
a,78420,0.000,0.000,36.000,0.000,4.131,0.291,-0.134,0.276,2.230,9.324,2.186
a,78424,0.000,0.000,36.000,0.000,4.043,-0.029,0.003,-0.259,2.239,9.361,2.207
a,78427,0.000,0.000,36.000,0.000,3.999,0.047,0.064,-0.656,2.217,9.330,2.189
a,78431,0.000,0.000,36.000,0.000,4.043,-0.029,-0.256,0.230,2.212,9.351,2.206
a,78435,0.000,0.000,36.000,0.000,3.999,0.077,0.125,-0.213,2.228,9.357,2.204
a,78439,0.000,0.000,36.000,0.000,4.087,0.001,-0.104,-0.747,2.194,9.347,2.206
a,78443,0.000,0.000,36.000,0.000,3.999,0.032,0.064,-0.259,2.225,9.349,2.211
a,78447,0.000,0.000,36.000,0.000,4.131,-0.075,-0.043,-0.366,2.210,9.353,2.209
a,78451,0.000,0.000,36.000,0.000,4.131,0.077,0.064,0.550,2.219,9.345,2.219
a,78455,0.000,0.000,36.000,0.000,4.131,-0.029,-0.256,0.612,2.228,9.349,2.191
a,78459,0.000,0.000,36.000,0.000,4.043,0.139,0.186,0.932,2.203,9.348,2.205
a,78463,0.000,0.000,36.000,0.000,3.999,-0.136,-0.058,-0.411,2.218,9.337,2.207
a,78468,0.000,0.000,36.000,0.000,3.999,0.077,-0.119,0.001,2.212,9.346,2.198
a,78471,0.000,0.000,36.000,0.000,4.043,-0.197,0.247,0.550,2.217,9.328,2.221
a,78475,0.000,0.000,36.000,0.000,4.087,-0.045,0.156,0.703,2.201,9.364,2.188
a,78479,0.000,0.000,36.000,0.000,4.087,0.169,0.018,-1.037,2.228,9.364,2.207
a,78483,0.000,0.000,36.000,0.000,3.999,0.077,0.232,0.749,2.218,9.322,2.211
a,78488,0.000,0.000,36.000,0.000,4.087,-0.075,0.018,0.230,2.222,9.363,2.195
a,78491,0.000,0.000,36.000,0.000,4.087,-0.060,0.125,1.008,2.212,9.348,2.209
a,78495,0.000,0.000,36.000,0.000,4.087,0.062,-0.043,-1.572,2.218,9.353,2.186
a,78500,0.000,0.000,36.000,0.000,4.087,0.093,-0.256,1.100,2.212,9.363,2.188
a,78503,0.000,0.000,36.000,0.000,4.087,0.139,-0.134,1.329,2.204,9.347,2.215
a,78508,0.000,0.000,36.000,0.000,4.131,-0.029,0.232,0.215,2.222,9.322,2.195
a,78512,0.000,0.000,36.000,0.000,4.043,-0.014,-0.211,1.070,2.222,9.335,2.198
a,78515,0.000,0.000,36.000,0.000,4.131,0.077,0.080,0.596,2.193,9.335,2.219
a,78519,0.000,0.000,36.000,0.000,4.087,-0.152,0.049,-1.129,2.228,9.378,2.201
a,78523,0.000,0.000,36.000,0.000,4.087,-0.029,0.217,-0.045,2.219,9.377,2.198
a,78527,0.000,0.000,36.000,0.000,4.043,0.077,0.156,-0.213,2.187,9.336,2.200
a,78531,0.000,0.000,36.000,0.000,4.087,0.062,-0.149,-0.106,2.212,9.310,2.228
a,78535,0.000,0.000,36.000,0.000,3.999,0.291,0.186,0.276,2.215,9.349,2.219
a,78540,0.000,0.000,36.000,0.000,4.087,0.032,0.141,0.612,2.217,9.364,2.209
a,78544,0.000,0.000,36.000,0.000,4.131,-0.029,0.003,-0.030,2.199,9.369,2.192
a,78548,0.000,0.000,36.000,0.000,4.043,0.077,0.171,0.703,2.206,9.349,2.209
a,78552,0.000,0.000,36.000,0.000,4.087,-0.075,-0.272,-0.091,2.188,9.349,2.188
a,78555,0.000,0.000,36.000,0.000,4.043,0.062,0.156,-0.488,2.230,9.354,2.200
a,78559,0.000,0.000,36.000,0.000,4.087,0.032,-0.043,-0.411,2.210,9.336,2.213
a,78563,0.000,0.000,36.000,0.000,4.043,0.062,-0.058,-0.595,2.218,9.331,2.201
a,78567,0.000,0.000,36.000,0.000,4.087,0.077,-0.119,-0.381,2.210,9.373,2.207
a,78571,0.000,0.000,36.000,0.000,4.131,-0.090,0.003,-1.236,2.222,9.351,2.198
a,78575,0.000,0.000,36.000,0.000,4.131,0.016,-0.165,-0.518,2.224,9.354,2.201
a,78579,0.000,0.000,36.000,0.000,4.043,0.062,0.125,-0.656,2.215,9.357,2.191
a,78583,0.000,0.000,36.000,0.000,3.999,0.139,0.018,-0.045,2.215,9.353,2.179
a,78587,0.000,0.000,36.000,0.000,4.043,0.062,-0.165,-0.763,2.210,9.357,2.198
a,78591,0.000,0.000,36.000,0.000,4.043,-0.197,0.018,0.230,2.206,9.348,2.191
a,78595,0.000,0.000,36.000,0.000,4.087,0.062,-0.256,-0.274,2.225,9.366,2.209
a,78599,0.000,0.000,36.000,0.000,4.087,-0.213,-0.043,0.123,2.225,9.359,2.205
a,78603,0.000,0.000,36.000,0.000,4.087,0.062,-0.165,-1.190,2.199,9.325,2.215
a,78608,0.000,0.000,36.000,0.000,4.087,0.077,0.232,-0.060,2.224,9.359,2.221
a,78611,0.000,0.000,36.000,0.000,4.131,-0.029,0.003,-0.030,2.212,9.371,2.194
a,78615,0.000,0.000,36.000,0.000,3.955,0.016,0.339,-0.106,2.222,9.339,2.205
a,78619,0.000,0.000,36.000,0.000,4.043,-0.045,-0.165,-1.129,2.206,9.363,2.221
a,78623,0.000,0.000,36.000,0.000,4.043,0.062,-0.088,0.092,2.219,9.354,2.191
a,78627,0.000,0.000,36.000,0.000,4.087,-0.152,-0.165,-0.900,2.204,9.354,2.198
a,78631,0.000,0.000,36.000,0.000,3.999,-0.090,0.141,0.718,2.197,9.373,2.188
a,78635,0.000,0.000,36.000,0.000,4.087,-0.197,-0.088,0.230,2.230,9.346,2.195
a,78640,0.000,0.000,36.000,0.000,4.087,-0.060,-0.043,1.833,2.212,9.334,2.194
a,78643,0.000,0.000,36.000,0.000,4.131,0.016,0.156,-1.022,2.217,9.382,2.204
a,78647,0.000,0.000,36.000,0.000,4.087,0.230,0.064,0.001,2.191,9.363,2.218
a,78652,0.000,0.000,36.000,0.000,4.087,0.184,-0.058,-0.320,2.199,9.330,2.198
a,78655,0.000,0.000,36.000,0.000,4.131,-0.213,-0.104,0.016,2.233,9.336,2.176
a,78660,0.000,0.000,36.000,0.000,4.087,-0.197,0.125,0.230,2.194,9.331,2.209
a,78664,0.000,0.000,36.000,0.000,4.087,-0.029,0.064,0.123,2.212,9.353,2.201
a,78668,0.000,0.000,36.000,0.000,3.999,-0.045,0.141,0.230,2.225,9.339,2.211
a,78671,0.000,0.000,36.000,0.000,3.999,-0.106,0.141,-0.869,2.222,9.340,2.193
a,78675,0.000,0.000,36.000,0.000,3.999,0.032,0.018,0.566,2.235,9.361,2.175
a,78679,0.000,0.000,36.000,0.000,4.043,-0.060,-0.088,1.008,2.210,9.330,2.194
a,78683,0.000,0.000,36.000,0.000,3.999,0.077,0.247,0.321,2.217,9.316,2.185
a,78688,0.000,0.000,36.000,0.000,4.043,-0.045,0.003,-0.686,2.212,9.331,2.207
a,78692,0.000,0.000,36.000,0.000,4.087,-0.213,0.156,-1.175,2.224,9.335,2.221
a,78695,0.000,0.000,36.000,0.000,4.087,-0.029,-0.165,0.123,2.234,9.339,2.211
a,78700,0.000,0.000,36.000,0.000,4.131,0.016,0.110,-0.961,2.218,9.325,2.213
a,78704,0.000,0.000,36.000,0.000,4.043,-0.029,0.034,0.612,2.193,9.305,2.173
a,78708,0.000,0.000,36.000,0.000,4.087,-0.090,-0.058,-0.854,2.194,9.324,2.195
a,78711,0.000,0.000,36.000,0.000,3.999,-0.075,0.232,0.215,2.203,9.382,2.206
a,78715,0.000,0.000,36.000,0.000,3.999,-0.029,0.247,0.276,2.243,9.354,2.211
a,78719,0.000,0.000,36.000,0.000,4.043,-0.243,0.141,0.291,2.193,9.330,2.194
a,78723,0.000,0.000,36.000,0.000,4.087,0.032,0.125,-0.411,2.230,9.328,2.206
a,78727,0.000,0.000,36.000,0.000,4.043,0.016,-0.195,-0.213,2.233,9.335,2.211
a,78731,0.000,0.000,36.000,0.000,4.131,-0.029,0.003,-0.411,2.194,9.339,2.215
a,78735,0.000,0.000,36.000,0.000,4.043,-0.136,-0.058,-0.259,2.234,9.345,2.209
a,78739,0.000,0.000,36.000,0.000,3.999,0.047,0.064,-1.144,2.212,9.355,2.209
a,78743,0.000,0.000,36.000,0.000,3.955,0.032,0.232,0.596,2.209,9.324,2.204
a,78748,0.000,0.000,36.000,0.000,4.087,-0.045,0.034,0.505,2.201,9.337,2.195
a,78751,0.000,0.000,36.000,0.000,4.087,-0.029,0.141,0.779,2.218,9.339,2.204
a,78755,0.000,0.000,36.000,0.000,4.087,0.123,0.217,-0.824,2.219,9.345,2.213
a,78759,0.000,0.000,36.000,0.000,4.087,-0.213,-0.226,-0.900,2.203,9.324,2.213
a,78763,0.000,0.000,36.000,0.000,4.043,-0.029,-0.058,0.123,2.230,9.323,2.195
a,78767,0.000,0.000,36.000,0.000,4.087,-0.121,-0.088,1.008,2.219,9.365,2.195
a,78771,0.000,0.000,36.000,0.000,4.087,-0.182,-0.104,2.047,2.224,9.334,2.200
a,78775,0.000,0.000,36.000,0.000,4.131,0.047,-0.211,-1.037,2.219,9.304,2.189
a,78779,0.000,0.000,36.000,0.000,4.131,-0.075,-0.134,0.352,2.233,9.342,2.188
a,78783,0.000,0.000,36.000,0.000,4.087,0.062,0.049,0.321,2.212,9.354,2.206
a,78787,0.000,0.000,36.000,0.000,4.087,-0.197,0.064,0.612,2.234,9.357,2.204
a,78792,0.000,0.000,36.000,0.000,4.043,-0.152,0.339,-1.297,2.203,9.345,2.206
a,78795,0.000,0.000,36.000,0.000,4.043,0.062,-0.226,-0.763,2.212,9.353,2.176
a,78799,0.000,0.000,36.000,0.000,4.043,-0.045,-0.149,-1.175,2.235,9.348,2.169
a,78803,0.000,0.000,36.000,0.000,4.087,0.047,-0.149,-0.701,2.222,9.339,2.188
a,78807,0.000,0.000,36.000,0.000,3.955,-0.014,0.080,1.604,2.197,9.345,2.191
a,78812,0.000,0.000,36.000,0.000,4.087,-0.182,0.018,1.665,2.217,9.335,2.219
a,78816,0.000,0.000,36.000,0.000,4.087,0.139,-0.058,0.108,2.217,9.334,2.204
a,78819,0.000,0.000,36.000,0.000,4.043,0.184,-0.043,0.108,2.206,9.353,2.204
a,78823,0.000,0.000,36.000,0.000,4.131,0.245,0.110,-0.045,2.186,9.328,2.179
a,78827,0.000,0.000,36.000,0.000,4.131,-0.075,0.080,0.291,2.240,9.351,2.207
a,78831,0.000,0.000,36.000,0.000,4.087,-0.075,0.064,-0.091,2.251,9.339,2.211
a,78835,0.000,0.000,36.000,0.000,4.087,0.032,0.018,-0.152,2.222,9.299,2.201
a,78840,0.000,0.000,36.000,0.000,4.043,0.291,0.018,0.276,2.204,9.325,2.176
a,78843,0.000,0.000,36.000,0.000,4.043,0.184,-0.043,0.001,2.217,9.335,2.219
a,78848,0.000,0.000,36.000,0.000,4.087,0.245,0.003,-0.106,2.201,9.312,2.227
a,78851,0.000,0.000,36.000,0.000,4.043,0.016,0.095,0.550,2.209,9.347,2.212
a,78855,0.000,0.000,36.000,0.000,4.131,0.077,-0.043,-0.274,2.215,9.319,2.185
a,78859,0.000,0.000,36.000,0.000,4.043,0.032,-0.043,-0.152,2.217,9.340,2.179
a,78863,0.000,0.000,36.000,0.000,3.999,-0.090,-0.333,-1.450,2.204,9.335,2.198
a,78867,0.000,0.000,36.000,0.000,3.999,-0.060,-0.043,1.176,2.209,9.307,2.204
a,78871,0.000,0.000,36.000,0.000,4.043,0.184,-0.027,0.444,2.240,9.322,2.224
a,78875,0.000,0.000,36.000,0.000,3.999,-0.060,-0.104,-0.900,2.197,9.310,2.170
a,78879,0.000,0.000,36.000,0.000,4.043,0.139,0.232,0.199,2.234,9.293,2.186
a,78883,0.000,0.000,36.000,0.000,4.043,-0.152,0.080,0.230,2.210,9.327,2.170
a,78887,0.000,0.000,36.000,0.000,3.999,-0.029,-0.119,0.016,2.212,9.297,2.200
a,78892,0.000,0.000,36.000,0.000,4.043,0.077,-0.165,0.169,2.210,9.340,2.209
a,78895,0.000,0.000,36.000,0.000,4.043,0.032,0.049,-0.030,2.210,9.331,2.188
a,78899,0.000,0.000,36.000,0.000,4.087,0.169,-0.058,-0.869,2.233,9.324,2.224
a,78903,0.000,0.000,36.000,0.000,4.131,-0.090,-0.149,-1.663,2.206,9.334,2.206
a,78907,0.000,0.000,36.000,0.000,4.043,-0.136,0.049,-0.305,2.219,9.295,2.195
a,78911,0.000,0.000,36.000,0.000,3.999,0.062,-0.043,-1.190,2.210,9.335,2.185
a,78915,0.000,0.000,36.000,0.000,4.087,-0.029,0.080,2.154,2.225,9.299,2.205
a,78919,0.000,0.000,36.000,0.000,3.999,0.001,-0.073,-1.938,2.224,9.311,2.204
a,78923,0.000,0.000,36.000,0.000,4.043,0.032,-0.119,-0.198,2.230,9.319,2.201
a,78927,0.000,0.000,36.000,0.000,3.999,0.077,-0.058,-0.320,2.203,9.317,2.182
a,78931,0.000,0.000,36.000,0.000,4.131,-0.106,-0.104,-0.686,2.203,9.327,2.201
a,78936,0.000,0.000,36.000,0.000,4.087,-0.121,0.125,0.886,2.215,9.305,2.185
a,78940,0.000,0.000,36.000,0.000,3.999,0.093,0.018,1.375,2.228,9.328,2.173
a,78944,0.000,0.000,36.000,0.000,4.043,-0.152,0.156,-0.854,2.215,9.353,2.194
a,78947,0.000,0.000,36.000,0.000,3.999,-0.029,-0.043,0.016,2.194,9.330,2.204
a,78951,0.000,0.000,36.000,0.000,4.043,0.077,0.049,-0.167,2.194,9.315,2.221
a,78955,0.000,0.000,36.000,0.000,4.087,-0.197,0.156,0.184,2.210,9.328,2.213
a,78960,0.000,0.000,36.000,0.000,4.043,0.077,0.064,-0.106,2.209,9.339,2.185
a,78964,0.000,0.000,36.000,0.000,4.043,0.032,0.034,0.352,2.228,9.311,2.198
a,78968,0.000,0.000,36.000,0.000,4.043,0.139,-0.027,1.100,2.234,9.295,2.203
a,78972,0.000,0.000,36.000,0.000,4.043,-0.258,0.324,-1.190,2.199,9.306,2.195
a,78975,0.000,0.000,36.000,0.000,4.087,-0.090,-0.043,-0.640,2.201,9.328,2.195
a,78979,0.000,0.000,36.000,0.000,3.999,-0.121,0.034,1.115,2.219,9.264,2.194
a,78983,0.000,0.000,36.000,0.000,4.043,-0.029,0.171,0.398,2.224,9.293,2.191
a,78988,0.000,0.000,36.000,0.000,4.043,0.230,0.003,-0.869,2.212,9.292,2.180
a,78992,0.000,0.000,36.000,0.000,3.999,-0.029,-0.195,0.505,2.197,9.303,2.211
a,78995,0.000,0.000,36.000,0.000,4.043,0.047,0.018,-0.701,2.215,9.319,2.206
a,79000,0.000,0.000,36.000,0.000,4.087,0.123,0.110,-1.144,2.210,9.293,2.200
a,79003,0.000,0.000,36.000,0.000,4.087,0.062,0.110,-0.701,2.191,9.307,2.233
a,79007,0.000,0.000,36.000,0.000,3.999,-0.029,0.064,0.077,2.201,9.319,2.194
a,79011,0.000,0.000,36.000,0.000,4.087,0.077,-0.119,0.169,2.213,9.309,2.191
a,79015,0.000,0.000,36.000,0.000,4.087,0.077,0.217,-0.060,2.204,9.330,2.215
a,79019,0.000,0.000,36.000,0.000,4.175,-0.075,0.064,-0.411,2.225,9.325,2.195
a,79023,0.000,0.000,36.000,0.000,3.999,-0.090,0.247,0.596,2.217,9.309,2.186
a,79027,0.000,0.000,36.000,0.000,4.043,-0.060,0.171,0.886,2.212,9.306,2.194
a,79031,0.000,0.000,36.000,0.000,3.999,-0.045,-0.058,-0.518,2.228,9.331,2.198
a,79035,0.000,0.000,36.000,0.000,3.955,0.016,0.049,-1.022,2.233,9.336,2.200
a,79039,0.000,0.000,36.000,0.000,3.999,-0.090,-0.119,-0.747,2.222,9.319,2.201
a,79043,0.000,0.000,36.000,0.000,4.043,-0.319,0.064,-0.854,2.209,9.316,2.192
a,79048,0.000,0.000,36.000,0.000,4.131,0.077,0.034,0.993,2.194,9.359,2.195
a,79051,0.000,0.000,36.000,0.000,4.087,0.276,-0.165,-1.190,2.230,9.324,2.182
a,79055,0.000,0.000,36.000,0.000,4.043,-0.213,-0.058,-0.961,2.224,9.351,2.195
a,79059,0.000,0.000,36.000,0.000,4.043,0.077,0.110,-0.167,2.222,9.331,2.207
a,79063,0.000,0.000,36.000,0.000,4.131,0.077,-0.058,-0.274,2.197,9.334,2.201
a,79067,0.000,0.000,36.000,0.000,4.087,-0.197,-0.043,0.398,2.234,9.317,2.192
a,79071,0.000,0.000,36.000,0.000,4.043,0.016,0.003,-0.472,2.230,9.322,2.188
a,79075,0.000,0.000,36.000,0.000,4.043,-0.029,0.018,-0.030,2.222,9.359,2.200
a,79079,0.000,0.000,36.000,0.000,4.087,-0.090,0.049,-0.900,2.215,9.317,2.179
a,79083,0.000,0.000,36.000,0.000,4.087,0.032,0.018,0.566,2.218,9.310,2.215
a,79087,0.000,0.000,36.000,0.000,4.087,0.001,0.156,1.360,2.227,9.327,2.200
a,79092,0.000,0.000,36.000,0.000,4.131,-0.152,0.003,-0.518,2.233,9.321,2.223
a,79095,0.000,0.000,36.000,0.000,4.043,-0.060,-0.043,0.886,2.227,9.353,2.179
a,79099,0.000,0.000,36.000,0.000,3.999,-0.213,-0.165,-1.343,2.203,9.336,2.209
a,79103,0.000,0.000,36.000,0.000,4.043,0.032,0.125,-0.259,2.222,9.334,2.198
a,79107,0.000,0.000,36.000,0.000,3.999,-0.029,0.125,0.123,2.222,9.346,2.179
a,79112,0.000,0.000,36.000,0.000,4.131,0.032,0.018,0.505,2.203,9.316,2.213
a,79116,0.000,0.000,36.000,0.000,4.043,0.032,0.049,-0.091,2.199,9.307,2.200
a,79119,0.000,0.000,36.000,0.000,4.043,-0.243,-0.165,0.123,2.240,9.343,2.192
a,79123,0.000,0.000,36.000,0.000,4.043,-0.075,-0.058,-0.366,2.204,9.335,2.198
a,79127,0.000,0.000,36.000,0.000,4.043,0.077,-0.149,-0.213,2.225,9.363,2.207
a,79131,0.000,0.000,36.000,0.000,3.999,-0.136,-0.165,-0.152,2.221,9.372,2.191
a,79135,0.000,0.000,36.000,0.000,4.043,-0.029,-0.149,0.612,2.239,9.333,2.204
a,79140,0.000,0.000,36.000,0.000,4.043,-0.060,0.125,-0.640,2.210,9.337,2.224
a,79143,0.000,0.000,36.000,0.000,4.131,-0.213,-0.226,-1.663,2.235,9.328,2.211
a,79148,0.000,0.000,36.000,0.000,4.087,0.062,0.141,0.444,2.222,9.327,2.191
a,79151,0.000,0.000,36.000,0.000,4.131,0.093,0.293,0.978,2.218,9.334,2.182
a,79155,0.000,0.000,36.000,0.000,3.955,-0.029,0.080,0.398,2.206,9.311,2.227
a,79159,0.000,0.000,36.000,0.000,4.043,0.016,0.141,0.352,2.194,9.345,2.234
a,79163,0.000,0.000,36.000,0.000,4.043,0.108,-0.058,1.008,2.199,9.327,2.192
a,79167,0.000,0.000,36.000,0.000,4.087,0.077,0.064,0.215,2.209,9.321,2.206
a,79171,0.000,0.000,36.000,0.000,3.999,0.077,0.125,-0.381,2.233,9.322,2.211
a,79175,0.000,0.000,36.000,0.000,4.087,-0.136,0.018,0.184,2.224,9.354,2.207
a,79179,0.000,0.000,36.000,0.000,4.087,-0.029,0.018,-0.198,2.209,9.336,2.194
a,79183,0.000,0.000,36.000,0.000,4.087,-0.075,-0.088,0.398,2.230,9.342,2.191
a,79187,0.000,0.000,36.000,0.000,3.999,-0.152,0.080,0.566,2.222,9.334,2.206
a,79191,0.000,0.000,36.000,0.000,4.087,0.062,0.156,-0.976,2.218,9.301,2.219
a,79195,0.000,0.000,36.000,0.000,4.043,0.016,0.125,-0.747,2.201,9.348,2.175
a,79200,0.000,0.000,36.000,0.000,4.087,-0.029,-0.165,0.016,2.212,9.336,2.223
a,79203,0.000,0.000,36.000,0.000,4.087,-0.029,0.064,0.459,2.215,9.331,2.213
a,79207,0.000,0.000,36.000,0.000,3.911,-0.152,-0.058,-0.579,2.204,9.342,2.219
a,79211,0.000,0.000,36.000,0.000,4.043,-0.029,0.232,0.444,2.209,9.335,2.223
a,79215,0.000,0.000,36.000,0.000,4.043,0.230,-0.165,-0.488,2.225,9.340,2.194
a,79219,0.000,0.000,36.000,0.000,4.087,0.032,-0.104,-0.366,2.225,9.310,2.192
a,79223,0.000,0.000,36.000,0.000,4.087,-0.075,-0.058,0.016,2.188,9.295,2.188
a,79227,0.000,0.000,36.000,0.000,3.999,-0.121,0.232,1.268,2.212,9.339,2.227
a,79231,0.000,0.000,36.000,0.000,4.043,-0.106,0.125,-0.793,2.217,9.339,2.197
a,79235,0.000,0.000,36.000,0.000,4.043,0.062,0.217,-0.885,2.225,9.324,2.198
a,79240,0.000,0.000,36.000,0.000,4.087,-0.029,0.171,0.612,2.219,9.325,2.201
a,79243,0.000,0.000,36.000,0.000,4.087,0.016,-0.058,-0.686,2.209,9.341,2.195
a,79247,0.000,0.000,36.000,0.000,4.043,-0.075,0.018,0.505,2.241,9.336,2.180
a,79251,0.000,0.000,36.000,0.000,3.999,-0.090,0.049,-0.854,2.199,9.366,2.207
a,79255,0.000,0.000,36.000,0.000,4.175,-0.045,0.217,-0.763,2.219,9.321,2.207
a,79260,0.000,0.000,36.000,0.000,4.175,0.032,-0.226,-0.305,2.221,9.339,2.219
a,79264,0.000,0.000,36.000,0.000,4.087,0.062,0.171,-0.808,2.201,9.345,2.204
a,79267,0.000,0.000,36.000,0.000,4.087,0.077,0.018,0.596,2.225,9.343,2.215
a,79271,0.000,0.000,36.000,0.000,4.087,0.032,0.064,0.077,2.217,9.353,2.215
a,79275,0.000,0.000,36.000,0.000,4.131,-0.014,-0.104,1.115,2.230,9.303,2.194
a,79279,0.000,0.000,36.000,0.000,4.087,-0.029,0.049,0.016,2.224,9.367,2.191
a,79283,0.000,0.000,36.000,0.000,4.043,-0.075,0.049,-0.091,2.240,9.328,2.200
a,79288,0.000,0.000,36.000,0.000,4.043,0.032,-0.134,0.398,2.248,9.345,2.215
a,79292,0.000,0.000,36.000,0.000,4.087,0.184,0.018,0.215,2.206,9.336,2.209
a,79295,0.000,0.000,36.000,0.000,4.043,0.032,-0.027,0.841,2.233,9.328,2.217
a,79300,0.000,0.000,36.000,0.000,4.043,-0.243,-0.027,0.459,2.203,9.331,2.207
a,79303,0.000,0.000,36.000,0.000,4.131,0.123,-0.058,-1.572,2.215,9.329,2.201
a,79307,0.000,0.000,36.000,0.000,4.219,0.016,-0.058,-1.282,2.206,9.345,2.198
a,79311,0.000,0.000,36.000,0.000,4.043,0.016,-0.165,-0.472,2.228,9.325,2.209
a,79315,0.000,0.000,36.000,0.000,4.043,0.047,-0.149,1.451,2.201,9.318,2.201
a,79319,0.000,0.000,36.000,0.000,4.043,0.139,0.064,0.383,2.193,9.345,2.217
a,79323,0.000,0.000,36.000,0.000,4.043,0.200,-0.073,-0.198,2.184,9.316,2.200
a,79327,0.000,0.000,36.000,0.000,4.043,-0.060,0.034,-1.831,2.199,9.346,2.200
a,79331,0.000,0.000,36.000,0.000,4.087,0.261,0.171,0.871,2.215,9.328,2.192
a,79335,0.000,0.000,36.000,0.000,4.043,-0.029,0.263,0.062,2.217,9.360,2.195
a,79339,0.000,0.000,36.000,0.000,3.999,-0.243,0.278,0.215,2.233,9.325,2.194
a,79343,0.000,0.000,36.000,0.000,4.087,0.093,-0.027,0.871,2.234,9.336,2.200
a,79347,0.000,0.000,36.000,0.000,4.087,0.032,0.125,0.352,2.203,9.351,2.172
a,79351,0.000,0.000,36.000,0.000,4.087,-0.289,-0.043,1.008,2.215,9.293,2.180
a,79356,0.000,0.000,36.000,0.000,4.043,0.139,-0.104,0.764,2.234,9.335,2.188
a,79359,0.000,0.000,36.000,0.000,4.043,0.016,-0.058,-0.747,2.201,9.336,2.217
a,79363,0.000,0.000,36.000,0.000,4.043,0.016,0.003,-0.518,2.246,9.331,2.204
a,79367,0.000,0.000,36.000,0.000,4.087,0.062,0.156,-1.037,2.218,9.304,2.211
a,79371,0.000,0.000,36.000,0.000,4.131,0.245,0.049,-0.320,2.224,9.335,2.194
a,79375,0.000,0.000,36.000,0.000,4.043,-0.045,-0.119,-0.472,2.217,9.342,2.185
a,79379,0.000,0.000,36.000,0.000,3.999,-0.029,0.110,-0.305,2.224,9.331,2.233
a,79383,0.000,0.000,36.000,0.000,4.131,-0.167,0.171,-0.747,2.222,9.339,2.203
a,79387,0.000,0.000,36.000,0.000,4.087,-0.121,0.141,-0.014,2.233,9.343,2.230
a,79392,0.000,0.000,36.000,0.000,4.087,-0.090,-0.058,-1.175,2.221,9.329,2.200
a,79395,0.000,0.000,36.000,0.000,3.999,0.139,0.263,0.092,2.209,9.305,2.217
a,79399,0.000,0.000,36.000,0.000,4.131,-0.213,0.156,-0.686,2.210,9.331,2.215
a,79403,0.000,0.000,36.000,0.000,4.219,-0.136,-0.043,-0.030,2.233,9.316,2.192
a,79407,0.000,0.000,36.000,0.000,4.043,0.016,-0.043,-0.198,2.234,9.299,2.206
a,79412,0.000,0.000,36.000,0.000,4.043,0.230,0.018,-1.404,2.215,9.340,2.240
a,79416,0.000,0.000,36.000,0.000,4.087,0.169,0.217,-0.885,2.212,9.317,2.179
a,79420,0.000,0.000,36.000,0.000,4.131,-0.029,-0.149,0.566,2.197,9.342,2.188
a,79423,0.000,0.000,36.000,0.000,4.087,-0.274,-0.043,-1.175,2.235,9.328,2.217
a,79427,0.000,0.000,36.000,0.000,4.043,-0.029,0.110,-0.259,2.235,9.339,2.206
a,79431,0.000,0.000,36.000,0.000,4.087,0.001,0.064,-0.579,2.203,9.319,2.209
a,79436,0.000,0.000,36.000,0.000,4.131,-0.075,0.171,0.459,2.228,9.322,2.206
a,79440,0.000,0.000,36.000,0.000,4.043,-0.136,0.171,0.505,2.212,9.303,2.201
a,79444,0.000,0.000,36.000,0.000,4.043,-0.136,-0.058,-0.152,2.251,9.307,2.204
a,79448,0.000,0.000,36.000,0.000,4.131,-0.152,0.064,-1.175,2.217,9.351,2.163
a,79451,0.000,0.000,36.000,0.000,4.043,0.032,0.003,0.184,2.209,9.331,2.176
a,79455,0.000,0.000,36.000,0.000,4.043,-0.075,0.125,0.016,2.219,9.324,2.195
a,79459,0.000,0.000,36.000,0.000,3.999,-0.136,0.171,0.841,2.203,9.323,2.179
a,79463,0.000,0.000,36.000,0.000,4.131,-0.136,0.110,-0.259,2.198,9.318,2.198
a,79467,0.000,0.000,36.000,0.000,3.999,-0.090,0.003,-0.579,2.210,9.346,2.200
a,79471,0.000,0.000,36.000,0.000,4.043,-0.136,0.018,0.398,2.209,9.340,2.185
a,79475,0.000,0.000,36.000,0.000,4.131,-0.090,0.049,-0.793,2.218,9.322,2.206
a,79479,0.000,0.000,36.000,0.000,4.043,0.047,-0.104,1.558,2.210,9.317,2.209
a,79483,0.000,0.000,36.000,0.000,3.999,0.200,-0.043,0.932,2.241,9.330,2.198
a,79487,0.000,0.000,36.000,0.000,4.131,-0.213,-0.104,0.077,2.209,9.379,2.197
a,79491,0.000,0.000,36.000,0.000,4.043,0.032,0.125,0.612,2.203,9.327,2.186
a,79496,0.000,0.000,36.000,0.000,4.131,0.077,0.003,-0.381,2.253,9.324,2.200
a,79499,0.000,0.000,36.000,0.000,4.043,0.123,0.064,-1.083,2.204,9.324,2.200
a,79503,0.000,0.000,36.000,0.000,4.175,0.123,-0.119,-0.595,2.193,9.330,2.215
a,79507,0.000,0.000,36.000,0.000,4.043,0.261,0.125,1.222,2.206,9.337,2.186
a,79511,0.000,0.000,36.000,0.000,4.087,-0.197,-0.149,-0.198,2.237,9.325,2.209
a,79515,0.000,0.000,36.000,0.000,4.043,-0.029,0.003,-0.305,2.239,9.353,2.195
a,79519,0.000,0.000,36.000,0.000,4.087,-0.075,-0.333,-0.198,2.221,9.347,2.194
a,79523,0.000,0.000,36.000,0.000,4.087,-0.029,0.018,0.077,2.201,9.324,2.182
a,79527,0.000,0.000,36.000,0.000,4.043,0.077,0.080,0.596,2.240,9.336,2.204
a,79531,0.000,0.000,36.000,0.000,4.087,-0.243,0.018,0.505,2.224,9.321,2.209
a,79535,0.000,0.000,36.000,0.000,4.131,-0.152,-0.165,-0.961,2.203,9.319,2.195
a,79540,0.000,0.000,36.000,0.000,4.043,0.032,0.156,-0.030,2.259,9.339,2.201
a,79544,0.000,0.000,36.000,0.000,4.087,-0.136,0.064,0.505,2.188,9.331,2.215
a,79547,0.000,0.000,36.000,0.000,4.043,0.047,0.064,-0.534,2.222,9.334,2.218
a,79551,0.000,0.000,36.000,0.000,4.043,-0.136,0.125,0.612,2.203,9.340,2.211
a,79555,0.000,0.000,36.000,0.000,4.043,-0.258,0.003,-0.579,2.209,9.321,2.195
a,79560,0.000,0.000,36.000,0.000,4.131,0.077,0.018,0.550,2.201,9.339,2.194
a,79564,0.000,0.000,36.000,0.000,4.175,-0.136,-0.104,-0.152,2.248,9.364,2.221
a,79568,0.000,0.000,36.000,0.000,4.087,0.093,0.049,0.566,2.199,9.319,2.198
a,79571,0.000,0.000,36.000,0.000,4.043,0.077,-0.043,0.596,2.204,9.348,2.195
a,79575,0.000,0.000,36.000,0.000,4.087,-0.060,-0.104,-0.793,2.217,9.304,2.195
a,79580,0.000,0.000,36.000,0.000,4.131,-0.029,-0.211,0.291,2.217,9.345,2.200
a,79583,0.000,0.000,36.000,0.000,4.131,-0.121,0.141,1.451,2.206,9.336,2.198
a,79587,0.000,0.000,36.000,0.000,4.087,-0.106,0.018,-1.388,2.224,9.347,2.206
a,79591,0.000,0.000,36.000,0.000,3.999,-0.029,0.018,0.718,2.212,9.367,2.179
a,79595,0.000,0.000,36.000,0.000,4.087,-0.045,0.171,-1.282,2.222,9.348,2.192
a,79599,0.000,0.000,36.000,0.000,4.087,0.047,-0.149,0.947,2.187,9.322,2.207
a,79603,0.000,0.000,36.000,0.000,4.043,-0.029,-0.058,-0.305,2.191,9.334,2.200
a,79607,0.000,0.000,36.000,0.000,4.087,0.032,0.064,0.612,2.225,9.311,2.206
a,79611,0.000,0.000,36.000,0.000,4.043,-0.045,0.049,-0.640,2.210,9.333,2.179
a,79615,0.000,0.000,36.000,0.000,4.043,0.016,-0.211,-0.900,2.210,9.339,2.206
a,79619,0.000,0.000,36.000,0.000,4.043,-0.075,-0.211,-0.091,2.222,9.364,2.223
a,79623,0.000,0.000,36.000,0.000,4.175,-0.075,0.141,0.841,2.203,9.322,2.198
a,79627,0.000,0.000,36.000,0.000,4.087,-0.045,-0.058,-1.068,2.217,9.354,2.213
a,79631,0.000,0.000,36.000,0.000,4.043,-0.045,0.125,-0.579,2.201,9.335,2.194
a,79636,0.000,0.000,36.000,0.000,4.043,0.032,0.003,0.184,2.201,9.306,2.213
a,79640,0.000,0.000,36.000,0.000,4.043,0.093,0.171,1.436,2.217,9.339,2.204
a,79643,0.000,0.000,36.000,0.000,4.087,-0.075,-0.043,0.077,2.217,9.334,2.227
a,79647,0.000,0.000,36.000,0.000,4.131,-0.045,0.415,0.550,2.219,9.353,2.215
a,79651,0.000,0.000,36.000,0.000,4.043,0.047,0.064,1.070,2.212,9.336,2.209
a,79656,0.000,0.000,36.000,0.000,4.043,-0.029,-0.119,0.123,2.218,9.346,2.209
a,79660,0.000,0.000,36.000,0.000,4.087,0.077,0.018,0.596,2.187,9.337,2.204
a,79663,0.000,0.000,36.000,0.000,4.131,0.184,-0.043,0.596,2.225,9.336,2.240
a,79667,0.000,0.000,36.000,0.000,4.087,0.032,0.125,0.505,2.218,9.311,2.201
a,79671,0.000,0.000,36.000,0.000,4.087,-0.136,0.018,-0.366,2.209,9.339,2.198
a,79675,0.000,0.000,36.000,0.000,4.131,0.077,-0.043,0.337,2.215,9.340,2.209
a,79679,0.000,0.000,36.000,0.000,4.087,-0.045,-0.119,-0.640,2.230,9.315,2.219
a,79683,0.000,0.000,36.000,0.000,4.087,0.077,-0.165,0.062,2.206,9.311,2.227
a,79688,0.000,0.000,36.000,0.000,4.087,0.123,-0.043,-0.701,2.212,9.313,2.215
a,79692,0.000,0.000,36.000,0.000,4.131,-0.213,0.110,-0.854,2.223,9.345,2.200
a,79695,0.000,0.000,36.000,0.000,4.131,0.139,0.064,0.383,2.219,9.334,2.211
a,79699,0.000,0.000,36.000,0.000,4.087,0.139,-0.272,-0.320,2.225,9.331,2.211
a,79704,0.000,0.000,36.000,0.000,4.043,-0.197,-0.104,0.505,2.235,9.349,2.201
a,79707,0.000,0.000,36.000,0.000,4.087,0.261,0.171,0.932,2.201,9.325,2.207
a,79711,0.000,0.000,36.000,0.000,4.087,-0.136,-0.043,0.612,2.224,9.330,2.198
a,79715,0.000,0.000,36.000,0.000,4.087,0.184,-0.119,0.108,2.235,9.346,2.200
a,79719,0.000,0.000,36.000,0.000,4.175,-0.136,-0.043,0.566,2.234,9.354,2.217
a,79723,0.000,0.000,36.000,0.000,3.955,-0.152,-0.104,-0.305,2.215,9.304,2.221
a,79727,0.000,0.000,36.000,0.000,4.043,-0.045,0.186,0.291,2.206,9.361,2.189
a,79731,0.000,0.000,36.000,0.000,4.087,-0.029,0.034,0.230,2.199,9.321,2.198
a,79735,0.000,0.000,36.000,0.000,4.087,0.032,-0.226,0.016,2.233,9.353,2.217
a,79739,0.000,0.000,36.000,0.000,4.087,0.139,0.080,0.383,2.222,9.348,2.213
a,79743,0.000,0.000,36.000,0.000,4.087,0.032,0.232,0.383,2.217,9.331,2.211
a,79748,0.000,0.000,36.000,0.000,4.087,0.077,-0.226,-0.213,2.219,9.369,2.192
a,79751,0.000,0.000,36.000,0.000,4.526,-0.029,-0.226,0.184,2.217,9.333,2.188
a,79755,0.000,0.000,36.000,0.000,4.087,-0.136,-0.119,-0.366,2.211,9.327,2.192
a,79759,0.000,0.000,36.000,0.000,4.043,0.077,0.110,-0.381,2.212,9.324,2.185
a,79763,0.000,0.000,36.000,0.000,4.087,-0.090,-0.226,-0.472,2.210,9.343,2.207
a,79767,0.000,0.000,36.000,0.000,4.131,-0.090,-0.104,-0.030,2.209,9.328,2.189
a,79771,0.000,0.000,36.000,0.000,3.999,-0.029,0.141,0.291,2.212,9.336,2.198
a,79775,0.000,0.000,36.000,0.000,4.087,0.184,-0.058,-0.213,2.204,9.340,2.200
a,79779,0.000,0.000,36.000,0.000,4.131,-0.243,0.125,0.459,2.215,9.345,2.204
a,79783,0.000,0.000,36.000,0.000,4.043,0.016,-0.104,-0.305,2.230,9.373,2.197
a,79788,0.000,0.000,36.000,0.000,4.087,-0.136,0.156,-0.152,2.199,9.339,2.224
a,79792,0.000,0.000,36.000,0.000,4.087,-0.029,0.156,0.184,2.209,9.333,2.198
a,79795,0.000,0.000,36.000,0.000,4.087,0.077,-0.104,0.001,2.218,9.324,2.206
a,79799,0.000,0.000,36.000,0.000,4.043,0.139,-0.104,0.596,2.204,9.336,2.185
a,79803,0.000,0.000,36.000,0.000,4.087,0.200,0.064,1.054,2.219,9.342,2.201
a,79807,0.000,0.000,36.000,0.000,3.999,-0.350,0.018,0.184,2.206,9.346,2.201
a,79812,0.000,0.000,36.000,0.000,4.087,0.062,0.125,-0.274,2.233,9.328,2.221
a,79816,0.000,0.000,36.000,0.000,4.175,0.032,-0.088,1.070,2.217,9.355,2.197
a,79819,0.000,0.000,36.000,0.000,3.999,-0.075,-0.165,-0.366,2.207,9.353,2.207
a,79823,0.000,0.000,36.000,0.000,4.043,0.032,0.110,-0.030,2.217,9.346,2.182
a,79827,0.000,0.000,36.000,0.000,4.087,0.169,0.141,-0.335,2.209,9.365,2.197
a,79831,0.000,0.000,36.000,0.000,4.087,-0.029,-0.058,0.123,2.204,9.322,2.186
a,79836,0.000,0.000,36.000,0.000,4.087,-0.090,0.034,0.398,2.235,9.327,2.189
a,79840,0.000,0.000,36.000,0.000,4.131,0.077,0.110,-0.274,2.210,9.364,2.200
a,79843,0.000,0.000,36.000,0.000,4.043,0.032,0.034,-0.518,2.207,9.367,2.209
a,79848,0.000,0.000,36.000,0.000,4.131,0.077,0.156,-0.213,2.225,9.342,2.219
a,79851,0.000,0.000,36.000,0.000,4.087,-0.136,-0.043,0.352,2.212,9.336,2.204
a,79855,0.000,0.000,36.000,0.000,4.087,-0.029,-0.165,0.184,2.217,9.364,2.194
a,79859,0.000,0.000,36.000,0.000,4.043,-0.243,-0.058,-0.030,2.224,9.331,2.195
a,79863,0.000,0.000,36.000,0.000,3.999,-0.090,-0.165,-1.388,2.230,9.351,2.191
a,79867,0.000,0.000,36.000,0.000,4.043,0.062,-0.317,-1.083,2.224,9.311,2.198
a,79871,0.000,0.000,36.000,0.000,4.043,-0.029,0.156,-0.305,2.246,9.339,2.200
a,79875,0.000,0.000,36.000,0.000,4.087,0.230,-0.104,0.108,2.215,9.359,2.173
a,79879,0.000,0.000,36.000,0.000,4.131,-0.029,0.278,0.383,2.219,9.335,2.176
a,79883,0.000,0.000,36.000,0.000,4.087,-0.136,0.217,-0.167,2.218,9.357,2.207
a,79887,0.000,0.000,36.000,0.000,4.043,0.032,0.018,0.612,2.199,9.329,2.207
a,79891,0.000,0.000,36.000,0.000,4.131,-0.243,-0.043,0.184,2.197,9.373,2.223
a,79895,0.000,0.000,36.000,0.000,4.131,0.123,0.003,-0.976,2.215,9.337,2.204
a,79899,0.000,0.000,36.000,0.000,4.087,0.077,0.125,-0.045,2.222,9.340,2.194
a,79904,0.000,0.000,36.000,0.000,4.087,0.032,0.018,0.505,2.230,9.342,2.186
a,79907,0.000,0.000,36.000,0.000,4.087,0.139,-0.165,-0.427,2.224,9.342,2.201
a,79911,0.000,0.000,36.000,0.000,4.043,-0.029,0.064,-0.305,2.219,9.328,2.211
a,79915,0.000,0.000,36.000,0.000,4.087,-0.029,0.186,0.779,2.212,9.349,2.185
a,79919,0.000,0.000,36.000,0.000,4.087,-0.029,0.247,0.215,2.201,9.306,2.191
a,79923,0.000,0.000,36.000,0.000,4.087,-0.152,0.049,-0.579,2.203,9.339,2.188
a,79927,0.000,0.000,36.000,0.000,4.175,0.032,-0.134,0.841,2.210,9.301,2.217
a,79931,0.000,0.000,36.000,0.000,4.131,-0.152,0.156,-0.900,2.199,9.321,2.211
a,79935,0.000,0.000,36.000,0.000,4.087,0.245,-0.027,0.337,2.217,9.328,2.180
a,79940,0.000,0.000,36.000,0.000,4.087,-0.029,0.049,-0.152,2.251,9.351,2.211
a,79944,0.000,0.000,36.000,0.000,4.043,0.184,-0.043,0.489,2.222,9.346,2.201
a,79947,0.000,0.000,36.000,0.000,4.043,-0.152,0.064,-0.472,2.203,9.331,2.182
a,79951,0.000,0.000,36.000,0.000,4.043,-0.060,0.186,1.008,2.225,9.342,2.215
a,79955,0.000,0.000,36.000,0.000,4.131,-0.136,0.232,0.825,2.201,9.319,2.209
a,79959,0.000,0.000,36.000,0.000,4.131,0.062,-0.104,-1.572,2.217,9.339,2.185
a,79964,0.000,0.000,36.000,0.000,4.087,-0.090,-0.149,-0.472,2.217,9.335,2.209
a,79968,0.000,0.000,36.000,0.000,4.087,0.077,-0.195,0.383,2.215,9.349,2.191
a,79971,0.000,0.000,36.000,0.000,4.087,-0.152,0.186,0.398,2.210,9.366,2.193
a,79975,0.000,0.000,36.000,0.000,4.043,-0.075,0.278,0.444,2.228,9.331,2.213
a,79979,0.000,0.000,36.000,0.000,4.043,0.077,0.080,1.375,2.206,9.343,2.178
a,79983,0.000,0.000,36.000,0.000,4.043,0.123,0.125,-1.190,2.225,9.348,2.192
a,79988,0.000,0.000,36.000,0.000,4.087,0.139,-0.226,-0.274,2.215,9.340,2.221
a,79992,0.000,0.000,36.000,0.000,4.131,-0.045,0.003,-0.518,2.218,9.377,2.213
a,79996,0.000,0.000,36.000,0.000,4.131,0.047,0.064,-0.534,2.206,9.316,2.203
a,80000,0.000,0.000,36.000,0.000,4.043,-0.136,0.278,0.596,2.215,9.360,2.206
a,80003,0.000,0.000,36.000,0.000,4.087,-0.152,-0.012,0.703,2.218,9.354,2.212
a,80007,0.000,0.000,36.000,0.000,4.087,0.077,-0.058,0.062,2.197,9.325,2.195
a,80011,0.000,0.000,36.000,0.000,4.043,-0.152,-0.119,-1.068,2.237,9.360,2.192
a,80015,0.000,0.000,36.000,0.000,4.043,0.139,0.003,-0.320,2.224,9.352,2.213
a,80019,0.000,0.000,36.000,0.000,4.087,-0.075,-0.058,-0.411,2.230,9.307,2.207
a,80023,0.000,0.000,36.000,0.000,4.043,-0.136,0.125,-0.259,2.228,9.353,2.219
a,80027,0.000,0.000,36.000,0.000,4.043,-0.045,0.018,-0.747,2.240,9.342,2.188
a,80031,0.000,0.000,36.000,0.000,3.999,-0.167,0.125,-0.793,2.215,9.347,2.215
a,80035,0.000,0.000,36.000,0.000,3.955,-0.045,0.080,0.566,2.209,9.359,2.218
a,80039,0.000,0.000,36.000,0.000,4.175,-0.090,-0.272,-0.472,2.209,9.321,2.211
a,80043,0.000,0.000,36.000,0.000,4.087,0.184,-0.211,0.215,2.199,9.339,2.227
a,80047,0.000,0.000,36.000,0.000,4.043,-0.090,0.064,-0.305,2.210,9.301,2.206
a,80052,0.000,0.000,36.000,0.000,4.043,0.032,0.018,0.077,2.218,9.322,2.215
a,80055,0.000,0.000,36.000,0.000,4.043,-0.152,0.003,-0.961,2.203,9.354,2.206
a,80059,0.000,0.000,36.000,0.000,3.999,-0.029,-0.256,-0.411,2.215,9.349,2.200
a,80063,0.000,0.000,36.000,0.000,4.526,-0.029,-0.104,0.291,2.204,9.325,2.204
a,80067,0.000,0.000,36.000,0.000,4.087,-0.182,0.232,0.993,2.197,9.331,2.213
a,80071,0.000,0.000,36.000,0.000,4.043,-0.213,0.018,0.123,2.217,9.327,2.211
a,80075,0.000,0.000,36.000,0.000,4.131,0.184,0.080,0.337,2.201,9.311,2.200
a,80079,0.000,0.000,36.000,0.000,4.043,-0.014,-0.043,0.886,2.218,9.331,2.204
a,80083,0.000,0.000,36.000,0.000,4.131,0.062,-0.043,-0.763,2.206,9.340,2.195
a,80088,0.000,0.000,36.000,0.000,4.087,0.016,0.049,-0.579,2.229,9.312,2.192
a,80092,0.000,0.000,36.000,0.000,4.087,0.032,0.064,0.612,2.218,9.336,2.215
a,80095,0.000,0.000,36.000,0.000,4.131,0.398,-0.043,-1.404,2.235,9.336,2.217
a,80099,0.000,0.000,36.000,0.000,4.043,-0.213,-0.149,-0.686,2.217,9.351,2.206
a,80103,0.000,0.000,36.000,0.000,4.087,-0.075,-0.211,0.718,2.184,9.325,2.219
a,80107,0.000,0.000,36.000,0.000,4.175,0.184,0.049,-0.213,2.212,9.328,2.206
a,80112,0.000,0.000,36.000,0.000,3.999,0.016,-0.149,-0.747,2.219,9.331,2.211
a,80116,0.000,0.000,36.000,0.000,4.087,0.077,0.049,-0.213,2.224,9.337,2.191
a,80120,0.000,0.000,36.000,0.000,4.087,-0.090,-0.058,-0.472,2.197,9.330,2.201
a,80123,0.000,0.000,36.000,0.000,4.087,0.032,0.034,0.291,2.235,9.335,2.209
a,80127,0.000,0.000,36.000,0.000,4.087,0.047,0.018,-0.656,2.206,9.345,2.203
a,80131,0.000,0.000,36.000,0.000,4.175,-0.152,0.110,-1.450,2.203,9.321,2.206
a,80135,0.000,0.000,36.000,0.000,4.131,0.077,0.064,-0.320,2.203,9.313,2.185
a,80140,0.000,0.000,36.000,0.000,4.087,-0.029,0.278,0.657,2.224,9.313,2.195
a,80143,0.000,0.000,36.000,0.000,4.043,0.077,0.217,0.047,2.234,9.318,2.211
a,80148,0.000,0.000,36.000,0.000,4.087,-0.075,0.080,0.352,2.210,9.335,2.206
a,80151,0.000,0.000,36.000,0.000,4.043,0.184,-0.165,0.108,2.210,9.307,2.207
a,80155,0.000,0.000,36.000,0.000,4.087,-0.029,-0.119,0.016,2.217,9.342,2.204
a,80159,0.000,0.000,36.000,0.000,4.131,-0.136,0.064,0.566,2.215,9.366,2.198
a,80163,0.000,0.000,36.000,0.000,4.043,0.139,0.064,0.703,2.201,9.291,2.194
a,80167,0.000,0.000,36.000,0.000,4.087,-0.197,0.232,0.596,2.219,9.335,2.195
a,80171,0.000,0.000,36.000,0.000,4.219,0.230,-0.363,-0.976,2.219,9.330,2.195
a,80175,0.000,0.000,36.000,0.000,4.131,0.093,-0.043,0.871,2.197,9.340,2.192
a,80179,0.000,0.000,36.000,0.000,4.087,-0.304,0.064,0.398,2.227,9.323,2.200
a,80183,0.000,0.000,36.000,0.000,4.131,0.077,0.034,0.703,2.215,9.331,2.198
a,80187,0.000,0.000,36.000,0.000,4.087,-0.121,0.125,0.947,2.201,9.343,2.221
a,80191,0.000,0.000,36.000,0.000,4.131,-0.029,-0.165,0.077,2.219,9.342,2.213
a,80195,0.000,0.000,36.000,0.000,4.131,0.032,0.400,0.596,2.218,9.319,2.192
a,80199,0.000,0.000,36.000,0.000,3.999,-0.045,0.110,-0.640,2.228,9.309,2.206
a,80204,0.000,0.000,36.000,0.000,3.999,0.077,0.080,0.215,2.219,9.340,2.195
a,80207,0.000,0.000,36.000,0.000,3.999,0.169,0.064,-0.763,2.218,9.342,2.209
a,80211,0.000,0.000,36.000,0.000,4.043,0.077,-0.165,-0.106,2.218,9.333,2.201
a,80215,0.000,0.000,36.000,0.000,4.087,0.123,0.125,-0.106,2.218,9.324,2.193
a,80219,0.000,0.000,36.000,0.000,4.131,0.032,-0.226,-0.411,2.225,9.346,2.219
a,80223,0.000,0.000,36.000,0.000,4.131,0.077,-0.058,-0.106,2.201,9.306,2.207
a,80227,0.000,0.000,36.000,0.000,4.087,-0.045,0.110,-0.793,2.225,9.334,2.215
a,80231,0.000,0.000,36.000,0.000,4.087,-0.090,-0.119,-0.793,2.215,9.313,2.179
a,80235,0.000,0.000,36.000,0.000,3.999,-0.060,-0.043,-0.640,2.222,9.351,2.211
a,80240,0.000,0.000,36.000,0.000,4.087,-0.136,0.125,-0.366,2.215,9.336,2.204
a,80244,0.000,0.000,36.000,0.000,4.131,0.245,0.186,0.489,2.197,9.354,2.206
a,80247,0.000,0.000,36.000,0.000,4.131,-0.029,-0.119,-0.198,2.217,9.342,2.198
a,80251,0.000,0.000,36.000,0.000,4.043,0.032,0.186,0.352,2.218,9.346,2.188
a,80255,0.000,0.000,36.000,0.000,4.087,0.184,-0.149,0.444,2.212,9.313,2.204
a,80260,0.000,0.000,36.000,0.000,4.087,-0.075,-0.272,0.077,2.219,9.319,2.198
a,80264,0.000,0.000,36.000,0.000,4.087,0.169,-0.058,-0.534,2.215,9.354,2.204
a,80268,0.000,0.000,36.000,0.000,3.999,0.077,-0.134,0.764,2.222,9.324,2.201
a,80271,0.000,0.000,36.000,0.000,4.131,0.016,-0.149,-1.068,2.219,9.342,2.194
a,80275,0.000,0.000,36.000,0.000,3.999,-0.197,0.018,0.779,2.204,9.322,2.211
a,80279,0.000,0.000,36.000,0.000,4.087,-0.136,0.064,-0.152,2.210,9.363,2.191
a,80283,0.000,0.000,36.000,0.000,3.955,0.077,-0.149,-0.167,2.228,9.339,2.223
a,80287,0.000,0.000,36.000,0.000,4.043,0.184,0.003,-0.427,2.218,9.319,2.195
a,80292,0.000,0.000,36.000,0.000,4.087,-0.136,-0.043,0.230,2.187,9.349,2.215
a,80295,0.000,0.000,36.000,0.000,4.131,0.291,0.003,0.062,2.201,9.317,2.223
a,80300,0.000,0.000,36.000,0.000,4.043,-0.258,0.018,0.077,2.222,9.345,2.188
a,80303,0.000,0.000,36.000,0.000,4.043,0.093,-0.149,1.100,2.217,9.361,2.215
a,80307,0.000,0.000,36.000,0.000,3.955,0.123,0.125,-0.656,2.217,9.330,2.221
a,80311,0.000,0.000,36.000,0.000,3.999,0.032,-0.149,0.459,2.225,9.349,2.182
a,80315,0.000,0.000,36.000,0.000,4.043,-0.029,0.064,0.459,2.230,9.313,2.186
a,80319,0.000,0.000,36.000,0.000,4.087,0.032,0.110,-0.259,2.209,9.348,2.209
a,80323,0.000,0.000,36.000,0.000,4.087,-0.029,-0.104,0.566,2.240,9.345,2.191
a,80327,0.000,0.000,36.000,0.000,4.131,0.077,0.125,-0.045,2.215,9.325,2.213
a,80331,0.000,0.000,36.000,0.000,4.043,0.016,0.217,-0.763,2.222,9.342,2.215
a,80335,0.000,0.000,36.000,0.000,4.043,-0.029,0.156,-0.259,2.219,9.340,2.192
a,80339,0.000,0.000,36.000,0.000,4.043,0.032,-0.211,0.123,2.212,9.342,2.195
a,80343,0.000,0.000,36.000,0.000,4.087,-0.075,0.064,-0.259,2.209,9.342,2.204
a,80347,0.000,0.000,36.000,0.000,3.999,-0.075,-0.211,0.230,2.237,9.295,2.207
a,80351,0.000,0.000,36.000,0.000,4.043,-0.075,-0.058,0.184,2.204,9.352,2.224
a,80356,0.000,0.000,36.000,0.000,3.955,0.062,0.110,-0.763,2.241,9.371,2.215
a,80359,0.000,0.000,36.000,0.000,4.087,-0.075,0.125,0.718,2.222,9.354,2.180
a,80363,0.000,0.000,36.000,0.000,4.131,-0.029,0.156,-0.411,2.219,9.319,2.211
a,80367,0.000,0.000,36.000,0.000,4.087,-0.258,0.064,-0.793,2.246,9.359,2.194
a,80371,0.000,0.000,36.000,0.000,3.911,-0.136,-0.272,-0.091,2.230,9.371,2.201
a,80375,0.000,0.000,36.000,0.000,4.043,0.368,-0.073,-0.411,2.229,9.355,2.204
a,80379,0.000,0.000,36.000,0.000,4.087,-0.029,-0.043,-0.259,2.215,9.353,2.215
a,80383,0.000,0.000,36.000,0.000,4.131,-0.197,-0.104,-0.366,2.215,9.330,2.173
a,80388,0.000,0.000,36.000,0.000,4.131,0.123,0.049,-0.488,2.199,9.349,2.198
a,80392,0.000,0.000,36.000,0.000,4.043,-0.152,0.110,-1.068,2.201,9.359,2.173
a,80395,0.000,0.000,36.000,0.000,3.999,0.077,-0.104,0.764,2.230,9.382,2.206
a,80399,0.000,0.000,36.000,0.000,3.955,-0.136,0.110,0.016,2.233,9.331,2.200
a,80403,0.000,0.000,36.000,0.000,4.043,0.062,0.003,-1.297,2.206,9.333,2.200
a,80407,0.000,0.000,36.000,0.000,4.043,-0.075,0.064,0.459,2.218,9.334,2.198
a,80412,0.000,0.000,36.000,0.000,4.131,-0.136,-0.149,0.077,2.215,9.348,2.219
a,80416,0.000,0.000,36.000,0.000,4.043,0.047,-0.134,1.283,2.222,9.360,2.200
a,80419,0.000,0.000,36.000,0.000,4.043,-0.075,0.217,-0.381,2.234,9.317,2.191
a,80423,0.000,0.000,36.000,0.000,4.043,-0.136,-0.058,-0.030,2.217,9.343,2.175
a,80427,0.000,0.000,36.000,0.000,4.087,0.215,-0.104,-1.190,2.218,9.363,2.211
a,80431,0.000,0.000,36.000,0.000,4.087,0.077,0.125,0.383,2.203,9.322,2.195
a,80435,0.000,0.000,36.000,0.000,4.087,0.062,-0.104,-0.534,2.219,9.336,2.179
a,80440,0.000,0.000,36.000,0.000,4.087,-0.029,0.080,0.612,2.210,9.359,2.194
a,80444,0.000,0.000,36.000,0.000,4.087,-0.029,0.141,0.291,2.206,9.353,2.207
a,80447,0.000,0.000,36.000,0.000,3.999,-0.243,-0.195,0.291,2.224,9.351,2.200
a,80452,0.000,0.000,36.000,0.000,4.087,0.032,0.018,0.016,2.210,9.330,2.195
a,80455,0.000,0.000,36.000,0.000,3.999,0.139,0.018,0.337,2.218,9.357,2.206
a,80459,0.000,0.000,36.000,0.000,4.131,-0.029,0.064,0.779,2.210,9.354,2.194
a,80463,0.000,0.000,36.000,0.000,4.043,-0.090,0.049,-0.472,2.206,9.357,2.201
a,80467,0.000,0.000,36.000,0.000,4.131,-0.136,0.186,0.718,2.228,9.334,2.195
a,80471,0.000,0.000,36.000,0.000,4.131,-0.029,-0.119,0.016,2.224,9.328,2.204
a,80475,0.000,0.000,36.000,0.000,4.175,0.077,-0.149,-0.274,2.199,9.363,2.236
a,80479,0.000,0.000,36.000,0.000,4.087,-0.090,0.003,-1.236,2.222,9.352,2.213
a,80483,0.000,0.000,36.000,0.000,4.131,0.077,0.110,0.001,2.218,9.354,2.194
a,80487,0.000,0.000,36.000,0.000,4.131,-0.029,0.125,0.077,2.217,9.335,2.235
a,80491,0.000,0.000,36.000,0.000,3.999,0.154,-0.088,0.993,2.215,9.339,2.192
a,80495,0.000,0.000,36.000,0.000,4.175,-0.029,-0.149,0.230,2.233,9.348,2.188
a,80500,0.000,0.000,36.000,0.000,4.043,-0.197,0.049,-0.198,2.225,9.351,2.194
a,80503,0.000,0.000,36.000,0.000,4.131,-0.136,-0.348,0.352,2.215,9.322,2.188
a,80507,0.000,0.000,36.000,0.000,4.087,0.047,0.171,-1.465,2.209,9.367,2.197
a,80511,0.000,0.000,36.000,0.000,4.131,-0.243,-0.104,0.459,2.209,9.322,2.191
a,80515,0.000,0.000,36.000,0.000,4.087,0.077,0.064,0.169,2.215,9.353,2.211
a,80519,0.000,0.000,36.000,0.000,3.999,0.062,-0.119,-1.190,2.194,9.346,2.213
a,80523,0.000,0.000,36.000,0.000,4.087,0.047,-0.043,1.497,2.228,9.357,2.194
a,80527,0.000,0.000,36.000,0.000,4.087,0.032,-0.119,0.184,2.225,9.354,2.206
a,80531,0.000,0.000,36.000,0.000,3.999,-0.152,-0.058,-0.686,2.219,9.349,2.191
a,80535,0.000,0.000,36.000,0.000,4.087,-0.243,0.110,-0.091,2.219,9.354,2.213
a,80540,0.000,0.000,36.000,0.000,4.043,-0.045,0.049,-0.854,2.219,9.303,2.221
a,80543,0.000,0.000,36.000,0.000,4.131,-0.197,0.186,0.673,2.218,9.335,2.200
a,80547,0.000,0.000,36.000,0.000,4.131,0.077,0.141,0.703,2.234,9.357,2.198
a,80551,0.000,0.000,36.000,0.000,4.087,-0.228,0.125,-0.472,2.197,9.363,2.197
a,80555,0.000,0.000,36.000,0.000,4.043,0.184,0.003,-0.381,2.222,9.365,2.191
a,80560,0.000,0.000,36.000,0.000,4.043,0.245,-0.058,-0.106,2.210,9.365,2.206
a,80564,0.000,0.000,36.000,0.000,4.087,-0.075,-0.058,-0.091,2.234,9.354,2.230
a,80567,0.000,0.000,36.000,0.000,4.087,0.016,0.003,-1.236,2.225,9.351,2.219
a,80571,0.000,0.000,36.000,0.000,3.999,0.139,-0.333,-0.274,2.215,9.336,2.224
a,80575,0.000,0.000,36.000,0.000,4.043,-0.182,0.141,1.115,2.234,9.316,2.191
a,80579,0.000,0.000,36.000,0.000,4.087,-0.045,0.064,-0.030,2.222,9.310,2.199
a,80583,0.000,0.000,36.000,0.000,4.043,0.032,0.186,0.779,2.204,9.316,2.194
a,80588,0.000,0.000,36.000,0.000,4.087,-0.014,-0.104,0.947,2.209,9.317,2.201
a,80591,0.000,0.000,36.000,0.000,4.087,0.077,-0.043,0.444,2.219,9.354,2.185
a,80596,0.000,0.000,36.000,0.000,4.043,-0.197,0.018,0.779,2.199,9.353,2.227
a,80600,0.000,0.000,36.000,0.000,4.131,-0.075,0.217,-0.427,2.218,9.377,2.198
a,80603,0.000,0.000,36.000,0.000,4.043,-0.029,0.247,0.383,2.240,9.353,2.215
a,80607,0.000,0.000,36.000,0.000,4.131,-0.136,-0.043,0.566,2.219,9.317,2.191
a,80611,0.000,0.000,36.000,0.000,4.131,0.139,-0.149,-0.045,2.222,9.340,2.191
a,80615,0.000,0.000,36.000,0.000,4.087,0.123,-0.119,-1.679,2.240,9.334,2.217
a,80619,0.000,0.000,36.000,0.000,4.043,-0.213,-0.119,-1.129,2.212,9.340,2.195
a,80623,0.000,0.000,36.000,0.000,4.087,0.032,0.049,-0.411,2.215,9.349,2.194
a,80627,0.000,0.000,36.000,0.000,4.087,0.016,0.018,-0.747,2.230,9.345,2.217
a,80631,0.000,0.000,36.000,0.000,4.087,0.077,-0.119,0.169,2.212,9.346,2.206
a,80635,0.000,0.000,36.000,0.000,4.043,0.093,-0.272,0.291,2.218,9.339,2.185
a,80639,0.000,0.000,36.000,0.000,4.043,0.077,0.217,0.092,2.209,9.317,2.211
a,80643,0.000,0.000,36.000,0.000,4.131,-0.014,0.247,1.161,2.219,9.345,2.213
a,80647,0.000,0.000,36.000,0.000,3.999,-0.029,-0.256,-0.305,2.222,9.319,2.217
a,80652,0.000,0.000,36.000,0.000,4.087,0.016,-0.104,0.077,2.237,9.319,2.221
a,80655,0.000,0.000,36.000,0.000,4.087,-0.060,-0.073,-1.770,2.217,9.330,2.200
a,80659,0.000,0.000,36.000,0.000,4.043,-0.228,0.125,-0.900,2.181,9.316,2.203
a,80663,0.000,0.000,36.000,0.000,4.043,0.077,-0.149,0.169,2.234,9.331,2.207
a,80667,0.000,0.000,36.000,0.000,4.087,0.077,-0.165,0.169,2.228,9.335,2.209
a,80671,0.000,0.000,36.000,0.000,4.043,0.062,0.125,-0.701,2.237,9.335,2.207
a,80675,0.000,0.000,36.000,0.000,4.043,0.032,-0.043,0.230,2.201,9.339,2.200
a,80679,0.000,0.000,36.000,0.000,3.999,-0.029,-0.058,0.077,2.204,9.342,2.154
a,80683,0.000,0.000,36.000,0.000,4.087,-0.014,-0.027,0.947,2.228,9.328,2.192
a,80688,0.000,0.000,36.000,0.000,4.131,0.077,-0.165,-0.167,2.218,9.333,2.215
a,80692,0.000,0.000,36.000,0.000,4.131,0.139,-0.226,-0.106,2.224,9.316,2.192
a,80695,0.000,0.000,36.000,0.000,4.043,-0.029,0.018,-0.411,2.218,9.346,2.221
a,80700,0.000,0.000,36.000,0.000,4.175,0.062,-0.226,-0.976,2.224,9.349,2.200
a,80703,0.000,0.000,36.000,0.000,4.087,0.016,-0.119,-0.793,2.187,9.336,2.229
a,80707,0.000,0.000,36.000,0.000,4.043,0.200,0.247,0.062,2.205,9.341,2.207
a,80711,0.000,0.000,36.000,0.000,4.131,-0.045,0.171,-1.068,2.210,9.340,2.194
a,80716,0.000,0.000,36.000,0.000,4.087,0.016,-0.165,-1.388,2.203,9.339,2.206
a,80720,0.000,0.000,36.000,0.000,4.087,0.032,0.247,0.215,2.224,9.364,2.211
a,80723,0.000,0.000,36.000,0.000,4.087,0.139,0.125,0.596,2.225,9.360,2.207
a,80727,0.000,0.000,36.000,0.000,4.087,0.123,-0.211,-1.679,2.219,9.345,2.211
a,80731,0.000,0.000,36.000,0.000,4.131,-0.045,0.171,-1.282,2.222,9.336,2.188
a,80735,0.000,0.000,36.000,0.000,4.087,0.139,0.003,-0.045,2.228,9.351,2.213
a,80740,0.000,0.000,36.000,0.000,4.175,-0.075,0.232,0.764,2.191,9.335,2.209
a,80743,0.000,0.000,36.000,0.000,3.955,0.093,-0.134,1.222,2.224,9.339,2.206
a,80748,0.000,0.000,36.000,0.000,4.087,0.016,0.110,-0.686,2.209,9.353,2.206
a,80751,0.000,0.000,36.000,0.000,4.087,-0.136,0.034,0.505,2.203,9.357,2.172
a,80755,0.000,0.000,36.000,0.000,4.043,0.077,-0.058,-0.427,2.234,9.342,2.195
a,80759,0.000,0.000,36.000,0.000,4.087,-0.075,0.247,0.825,2.219,9.345,2.204
a,80763,0.000,0.000,36.000,0.000,4.175,-0.045,-0.119,-1.511,2.233,9.334,2.195
a,80767,0.000,0.000,36.000,0.000,4.087,-0.029,0.141,0.352,2.217,9.346,2.209
a,80771,0.000,0.000,36.000,0.000,4.087,0.108,-0.043,-1.465,2.191,9.318,2.199
a,80775,0.000,0.000,36.000,0.000,4.043,-0.014,0.186,1.237,2.191,9.330,2.188
a,80779,0.000,0.000,36.000,0.000,4.087,0.184,0.141,0.489,2.224,9.335,2.211
a,80783,0.000,0.000,36.000,0.000,4.087,-0.029,0.003,0.123,2.219,9.333,2.219
a,80787,0.000,0.000,36.000,0.000,4.043,0.077,0.171,0.657,2.225,9.351,2.191
a,80791,0.000,0.000,36.000,0.000,4.043,-0.090,0.064,-0.030,2.206,9.379,2.211
a,80795,0.000,0.000,36.000,0.000,4.043,-0.045,-0.043,-1.282,2.191,9.378,2.201
a,80799,0.000,0.000,36.000,0.000,3.999,-0.029,-0.058,-0.305,2.204,9.313,2.198
a,80804,0.000,0.000,36.000,0.000,4.131,0.077,-0.226,-0.045,2.204,9.349,2.215
a,80807,0.000,0.000,36.000,0.000,4.087,-0.304,0.049,-0.259,2.215,9.386,2.195
a,80811,0.000,0.000,36.000,0.000,4.043,0.077,0.064,0.489,2.241,9.319,2.204
a,80815,0.000,0.000,36.000,0.000,4.043,-0.136,0.247,0.383,2.204,9.331,2.182
a,80819,0.000,0.000,36.000,0.000,4.131,0.169,0.003,-0.488,2.210,9.340,2.200
a,80823,0.000,0.000,36.000,0.000,3.955,-0.136,-0.226,-0.030,2.218,9.324,2.200
a,80827,0.000,0.000,36.000,0.000,3.999,-0.136,0.018,0.459,2.199,9.349,2.215
a,80831,0.000,0.000,36.000,0.000,4.087,-0.152,-0.058,-0.518,2.240,9.325,2.195
a,80835,0.000,0.000,36.000,0.000,4.087,-0.045,-0.043,-0.198,2.215,9.345,2.201
a,80840,0.000,0.000,36.000,0.000,4.087,-0.029,0.110,-0.152,2.237,9.358,2.211
a,80844,0.000,0.000,36.000,0.000,4.043,0.139,0.003,-0.106,2.204,9.339,2.194
a,80847,0.000,0.000,36.000,0.000,3.999,0.077,0.049,-0.381,2.235,9.349,2.236
a,80851,0.000,0.000,36.000,0.000,4.175,0.016,-0.058,-0.640,2.201,9.339,2.200
a,80855,0.000,0.000,36.000,0.000,3.999,-0.152,0.110,-0.961,2.205,9.333,2.188
a,80859,0.000,0.000,36.000,0.000,4.043,0.077,0.339,-0.396,2.224,9.345,2.191
a,80864,0.000,0.000,36.000,0.000,4.043,-0.152,0.018,-0.854,2.210,9.363,2.215
a,80868,0.000,0.000,36.000,0.000,4.131,0.108,-0.104,-0.763,2.237,9.313,2.203
a,80871,0.000,0.000,36.000,0.000,4.043,0.184,-0.058,0.169,2.201,9.339,2.201
a,80875,0.000,0.000,36.000,0.000,4.087,-0.045,0.049,-1.282,2.218,9.321,2.221
a,80879,0.000,0.000,36.000,0.000,4.175,-0.304,-0.043,-0.152,2.210,9.331,2.191
a,80883,0.000,0.000,36.000,0.000,3.955,-0.075,-0.043,-0.366,2.204,9.354,2.204
a,80888,0.000,0.000,36.000,0.000,4.131,0.032,-0.149,-0.411,2.225,9.351,2.195
a,80892,0.000,0.000,36.000,0.000,4.087,-0.045,-0.043,0.184,2.203,9.373,2.215
a,80895,0.000,0.000,36.000,0.000,4.131,-0.029,-0.043,0.184,2.219,9.357,2.211
a,80900,0.000,0.000,36.000,0.000,4.043,0.139,-0.165,-0.045,2.209,9.353,2.211
a,80903,0.000,0.000,36.000,0.000,4.131,0.123,0.156,-0.656,2.210,9.321,2.201
a,80907,0.000,0.000,36.000,0.000,4.131,0.062,0.186,0.703,2.206,9.343,2.186
a,80911,0.000,0.000,36.000,0.000,4.043,0.032,0.003,0.184,2.217,9.323,2.201
a,80915,0.000,0.000,36.000,0.000,4.087,0.139,0.110,-0.427,2.191,9.333,2.229
a,80919,0.000,0.000,36.000,0.000,4.087,0.139,-0.058,-0.045,2.223,9.330,2.185
a,80923,0.000,0.000,36.000,0.000,4.043,0.032,-0.058,0.123,2.215,9.339,2.185
a,80927,0.000,0.000,36.000,0.000,4.043,0.016,0.080,0.291,2.199,9.333,2.189
a,80931,0.000,0.000,36.000,0.000,3.999,-0.029,-0.027,0.352,2.215,9.340,2.188
a,80935,0.000,0.000,36.000,0.000,4.087,0.108,-0.043,-1.358,2.209,9.324,2.189
a,80939,0.000,0.000,36.000,0.000,4.043,-0.136,-0.272,-0.366,2.242,9.361,2.195
a,80943,0.000,0.000,36.000,0.000,4.043,-0.045,-0.149,-1.663,2.233,9.371,2.188
a,80947,0.000,0.000,36.000,0.000,4.043,0.093,0.141,1.054,2.212,9.371,2.215
a,80951,0.000,0.000,36.000,0.000,4.087,0.047,-0.241,1.115,2.197,9.354,2.213
a,80956,0.000,0.000,36.000,0.000,4.087,0.245,0.064,-0.320,2.215,9.353,2.211
a,80959,0.000,0.000,36.000,0.000,4.087,0.062,0.003,-0.808,2.235,9.351,2.201
a,80963,0.000,0.000,36.000,0.000,4.131,0.016,0.018,-0.579,2.219,9.357,2.186
a,80967,0.000,0.000,36.000,0.000,4.087,0.062,-0.165,-0.488,2.221,9.327,2.179
a,80971,0.000,0.000,36.000,0.000,3.955,0.230,0.049,-0.869,2.237,9.321,2.209
a,80975,0.000,0.000,36.000,0.000,4.087,0.016,0.232,-0.045,2.210,9.366,2.191
a,80979,0.000,0.000,36.000,0.000,3.999,-0.197,-0.043,0.352,2.215,9.339,2.204
a,80983,0.000,0.000,36.000,0.000,4.087,0.016,-0.088,0.612,2.210,9.353,2.225
a,80987,0.000,0.000,36.000,0.000,4.658,-0.152,0.156,-0.793,2.233,9.341,2.209
a,80992,0.000,0.000,36.000,0.000,4.087,-0.029,0.125,-0.305,2.201,9.321,2.224
a,80995,0.000,0.000,36.000,0.000,4.043,0.032,0.003,0.016,2.193,9.369,2.209
a,80999,0.000,0.000,36.000,0.000,4.087,-0.045,0.156,-0.472,2.230,9.369,2.172
a,81003,0.000,0.000,36.000,0.000,4.043,-0.075,0.278,0.337,2.206,9.317,2.219
a,81008,0.000,0.000,36.000,0.000,4.087,0.062,0.018,-1.404,2.197,9.374,2.176
a,81012,0.000,0.000,36.000,0.000,4.087,0.062,0.049,-0.976,2.235,9.346,2.201
a,81016,0.000,0.000,36.000,0.000,4.087,0.077,0.018,0.383,2.193,9.334,2.198
a,81020,0.000,0.000,36.000,0.000,3.999,0.077,0.125,-0.213,2.212,9.330,2.211
a,81023,0.000,0.000,36.000,0.000,4.131,0.077,-0.211,0.825,2.222,9.342,2.195
a,81027,0.000,0.000,36.000,0.000,4.087,-0.075,0.049,-0.152,2.193,9.351,2.224
a,81031,0.000,0.000,36.000,0.000,4.087,-0.136,-0.119,0.184,2.212,9.351,2.207
a,81036,0.000,0.000,36.000,0.000,4.043,-0.045,-0.256,-0.305,2.218,9.341,2.189
a,81040,0.000,0.000,36.000,0.000,3.999,0.123,0.324,-0.824,2.240,9.379,2.207
a,81043,0.000,0.000,36.000,0.000,4.087,-0.197,-0.043,0.291,2.234,9.313,2.195
a,81048,0.000,0.000,36.000,0.000,4.043,0.062,0.049,-0.701,2.215,9.348,2.191
a,81051,0.000,0.000,36.000,0.000,4.131,0.032,-0.058,-0.030,2.215,9.365,2.194
a,81055,0.000,0.000,36.000,0.000,3.999,0.032,-0.027,0.459,2.215,9.330,2.198
a,81059,0.000,0.000,36.000,0.000,4.043,-0.060,-0.088,-1.190,2.206,9.331,2.180
a,81063,0.000,0.000,36.000,0.000,4.087,0.139,0.110,-1.953,2.194,9.367,2.230
a,81067,0.000,0.000,36.000,0.000,4.087,-0.014,0.141,1.115,2.234,9.353,2.207
a,81071,0.000,0.000,36.000,0.000,4.043,-0.045,0.293,0.383,2.219,9.365,2.222
a,81075,0.000,0.000,36.000,0.000,3.999,0.184,0.141,0.215,2.217,9.351,2.192
a,81079,0.000,0.000,36.000,0.000,3.999,-0.075,-0.134,0.566,2.204,9.328,2.207
a,81083,0.000,0.000,36.000,0.000,4.087,-0.152,-0.043,-0.472,2.206,9.359,2.213
a,81087,0.000,0.000,36.000,0.000,4.087,0.077,0.080,0.489,2.233,9.374,2.195
a,81092,0.000,0.000,36.000,0.000,3.999,0.200,0.141,1.054,2.199,9.321,2.207
a,81095,0.000,0.000,36.000,0.000,4.043,0.184,-0.119,-0.381,2.224,9.354,2.188
a,81099,0.000,0.000,36.000,0.000,4.043,-0.029,0.064,-0.411,2.215,9.342,2.198
a,81103,0.000,0.000,36.000,0.000,4.087,-0.197,0.247,0.825,2.218,9.322,2.246
a,81107,0.000,0.000,36.000,0.000,4.131,-0.060,0.125,-1.450,2.240,9.319,2.186
a,81111,0.000,0.000,36.000,0.000,4.043,0.093,-0.211,1.268,2.209,9.358,2.195
a,81115,0.000,0.000,36.000,0.000,4.131,-0.060,0.171,0.947,2.203,9.358,2.223
a,81119,0.000,0.000,36.000,0.000,4.087,-0.090,0.018,-0.579,2.201,9.359,2.198
a,81123,0.000,0.000,36.000,0.000,4.043,-0.029,0.064,0.566,2.203,9.336,2.204
a,81127,0.000,0.000,36.000,0.000,4.131,-0.136,0.110,-0.366,2.203,9.334,2.188
a,81131,0.000,0.000,36.000,0.000,4.087,0.047,0.064,1.665,2.228,9.330,2.191
a,81136,0.000,0.000,36.000,0.000,4.087,0.093,-0.088,1.268,2.203,9.310,2.195
a,81140,0.000,0.000,36.000,0.000,4.087,-0.060,-0.211,-0.579,2.217,9.351,2.222
a,81143,0.000,0.000,36.000,0.000,3.999,0.307,0.247,0.917,2.257,9.340,2.198
a,81147,0.000,0.000,36.000,0.000,4.043,-0.136,0.125,-0.259,2.218,9.360,2.209
a,81151,0.000,0.000,36.000,0.000,4.043,0.077,0.171,0.489,2.204,9.367,2.188
a,81155,0.000,0.000,36.000,0.000,4.087,-0.197,0.003,-0.030,2.235,9.340,2.213
a,81160,0.000,0.000,36.000,0.000,4.087,0.087,0.007,0.758,2.209,9.354,2.213
a,81164,0.000,0.000,36.000,0.000,4.087,-0.065,-0.099,1.445,2.210,9.334,2.195
a,81168,0.000,0.000,36.000,0.000,4.131,-0.035,-0.222,-0.800,2.228,9.346,2.211
a,81171,0.000,0.000,36.000,0.000,4.043,0.301,-0.176,-0.113,2.222,9.331,2.194
a,81175,0.000,0.000,36.000,0.000,4.087,0.133,-0.115,-1.242,2.233,9.334,2.182
a,81179,0.000,0.000,36.000,0.000,4.043,-0.065,0.343,0.437,2.235,9.334,2.200
a,81183,0.000,0.000,36.000,0.000,4.175,0.041,-0.038,1.399,2.203,9.345,2.199
a,81188,0.000,0.000,36.000,0.000,4.087,-0.020,0.007,0.238,2.230,9.319,2.229
a,81192,0.000,0.000,36.000,0.000,4.131,0.087,0.221,0.742,2.204,9.351,2.215
a,81195,0.000,0.000,36.000,0.000,4.087,0.057,-0.222,-1.029,2.215,9.334,2.205
a,81200,0.000,0.000,36.000,0.000,4.087,-0.127,0.007,-0.036,2.230,9.354,2.195
a,81203,0.000,0.000,36.000,0.000,4.087,0.041,0.069,0.284,2.199,9.339,2.194
a,81207,0.000,0.000,36.000,0.000,4.087,-0.081,0.053,-0.357,2.243,9.333,2.201
a,81211,0.000,0.000,36.000,0.000,4.131,0.148,-0.206,1.277,2.237,9.355,2.212
a,81215,0.000,0.000,36.000,0.000,4.131,-0.157,0.007,-0.739,2.206,9.353,2.184
a,81219,0.000,0.000,36.000,0.000,3.999,-0.065,0.023,0.406,2.230,9.378,2.219
a,81223,0.000,0.000,36.000,0.000,4.043,0.102,0.023,0.987,2.210,9.319,2.223
a,81227,0.000,0.000,36.000,0.000,4.087,0.072,-0.038,0.758,2.225,9.299,2.206
a,81231,0.000,0.000,36.000,0.000,4.043,-0.188,-0.145,0.284,2.235,9.340,2.194
a,81235,0.000,0.000,36.000,0.000,4.131,0.194,-0.054,-0.326,2.228,9.357,2.188
a,81239,0.000,0.000,36.000,0.000,4.087,-0.065,0.038,-0.311,2.212,9.331,2.175
a,81244,0.000,0.000,36.000,0.000,4.087,0.041,0.114,-0.036,2.235,9.348,2.207
a,81247,0.000,0.000,36.000,0.000,4.043,-0.020,0.007,0.513,2.209,9.357,2.211
a,81251,0.000,0.000,36.000,0.000,4.043,0.087,-0.130,-0.052,2.203,9.333,2.195
a,81255,0.000,0.000,36.000,0.000,4.043,0.087,-0.160,0.162,2.206,9.322,2.209
a,81259,0.000,0.000,36.000,0.000,4.131,0.164,0.007,1.048,2.224,9.322,2.204
a,81263,0.000,0.000,36.000,0.000,4.043,0.118,0.007,-0.601,2.235,9.341,2.189
a,81267,0.000,0.000,36.000,0.000,4.131,-0.020,0.038,0.025,2.201,9.335,2.188
a,81271,0.000,0.000,36.000,0.000,4.087,0.072,-0.069,-0.861,2.188,9.349,2.227
a,81275,0.000,0.000,36.000,0.000,4.043,-0.127,-0.038,0.773,2.212,9.342,2.200
a,81279,0.000,0.000,36.000,0.000,4.087,-0.249,0.175,0.284,2.230,9.333,2.225
a,81283,0.000,0.000,36.000,0.000,4.087,-0.127,-0.160,0.132,2.215,9.339,2.194
a,81288,0.000,0.000,36.000,0.000,4.043,-0.233,0.130,0.727,2.233,9.367,2.194
a,81292,0.000,0.000,36.000,0.000,4.087,-0.142,-0.115,-1.334,2.224,9.365,2.207
a,81295,0.000,0.000,36.000,0.000,4.087,-0.020,-0.008,-0.204,2.218,9.346,2.201
a,81299,0.000,0.000,36.000,0.000,3.999,-0.035,0.099,-1.120,2.194,9.346,2.236
a,81303,0.000,0.000,36.000,0.000,3.955,0.133,0.114,0.162,2.210,9.343,2.197
a,81308,0.000,0.000,36.000,0.000,4.043,0.026,0.099,-0.739,2.215,9.360,2.198
a,81312,0.000,0.000,36.000,0.000,4.087,0.148,0.099,-0.113,2.217,9.335,2.217
a,81316,0.000,0.000,36.000,0.000,4.043,0.072,-0.115,-0.265,2.209,9.370,2.217
a,81319,0.000,0.000,36.000,0.000,4.043,0.057,0.007,-1.090,2.225,9.353,2.197
a,81323,0.000,0.000,36.000,0.000,4.043,0.041,0.130,0.895,2.217,9.346,2.209
a,81327,0.000,0.000,36.000,0.000,4.043,-0.188,-0.008,0.025,2.224,9.365,2.198
a,81331,0.000,0.000,36.000,0.000,4.043,0.148,0.221,0.422,2.222,9.339,2.200
a,81335,0.000,0.000,36.000,0.000,3.999,-0.065,0.007,0.513,2.197,9.335,2.204
a,81340,0.000,0.000,36.000,0.000,4.043,-0.020,0.007,0.177,2.212,9.322,2.175
a,81343,0.000,0.000,36.000,0.000,4.131,-0.004,0.069,1.231,2.219,9.328,2.191
a,81348,0.000,0.000,36.000,0.000,4.131,-0.020,0.069,0.452,2.230,9.349,2.195
a,81351,0.000,0.000,36.000,0.000,4.131,-0.142,-0.099,0.055,2.204,9.345,2.195
a,81355,0.000,0.000,36.000,0.000,4.131,0.041,-0.069,0.132,2.219,9.340,2.194
a,81359,0.000,0.000,36.000,0.000,3.999,-0.065,0.206,0.223,2.209,9.331,2.213
a,81363,0.000,0.000,36.000,0.000,4.043,0.133,-0.069,-0.433,2.222,9.364,2.206
a,81367,0.000,0.000,36.000,0.000,4.043,0.087,-0.176,0.009,2.203,9.329,2.188
a,81371,0.000,0.000,36.000,0.000,4.043,-0.020,-0.069,-0.097,2.206,9.353,2.194
a,81375,0.000,0.000,36.000,0.000,3.999,-0.065,0.069,0.284,2.224,9.325,2.188
a,81379,0.000,0.000,36.000,0.000,3.999,-0.050,-0.115,1.933,2.224,9.342,2.204
a,81383,0.000,0.000,36.000,0.000,4.043,-0.081,0.114,-0.632,2.204,9.357,2.223
a,81387,0.000,0.000,36.000,0.000,4.087,-0.111,0.007,1.002,2.224,9.360,2.198
a,81391,0.000,0.000,36.000,0.000,4.043,-0.065,-0.099,1.124,2.217,9.324,2.211
a,81396,0.000,0.000,36.000,0.000,4.087,-0.127,-0.115,0.834,2.209,9.385,2.201
a,81399,0.000,0.000,36.000,0.000,4.087,0.072,0.007,-0.540,2.201,9.346,2.188
a,81403,0.000,0.000,36.000,0.000,4.131,-0.081,0.053,0.132,2.204,9.336,2.188
a,81407,0.000,0.000,36.000,0.000,4.043,0.087,-0.176,0.223,2.224,9.335,2.195
a,81411,0.000,0.000,36.000,0.000,4.043,0.026,0.038,-0.586,2.219,9.339,2.223
a,81415,0.000,0.000,36.000,0.000,4.043,0.072,-0.115,-0.861,2.215,9.349,2.213
a,81419,0.000,0.000,36.000,0.000,4.131,-0.218,-0.176,-1.838,2.233,9.328,2.211
a,81423,0.000,0.000,36.000,0.000,4.043,-0.065,0.023,0.773,2.215,9.349,2.211
a,81427,0.000,0.000,36.000,0.000,4.131,0.072,-0.038,0.819,2.218,9.363,2.203
a,81431,0.000,0.000,36.000,0.000,4.043,-0.111,-0.038,1.994,2.219,9.359,2.200
a,81436,0.000,0.000,36.000,0.000,3.999,0.087,0.130,0.758,2.203,9.363,2.198
a,81440,0.000,0.000,36.000,0.000,4.043,0.133,-0.130,-1.090,2.212,9.352,2.198
a,81444,0.000,0.000,36.000,0.000,4.043,0.057,-0.038,0.941,2.218,9.354,2.219
a,81447,0.000,0.000,36.000,0.000,4.087,-0.065,-0.160,0.406,2.204,9.324,2.182
a,81451,0.000,0.000,36.000,0.000,4.131,-0.264,-0.222,-0.464,2.225,9.333,2.201
a,81455,0.000,0.000,36.000,0.000,4.043,-0.127,-0.054,-0.311,2.219,9.311,2.180
a,81460,0.000,0.000,36.000,0.000,4.043,-0.203,0.114,-0.143,2.201,9.348,2.182
a,81464,0.000,0.000,36.000,0.000,4.087,0.133,0.084,0.635,2.210,9.352,2.203
a,81467,0.000,0.000,36.000,0.000,3.999,0.026,-0.237,-0.907,2.210,9.354,2.223
a,81471,0.000,0.000,36.000,0.000,4.131,-0.111,-0.115,0.941,2.203,9.352,2.200
a,81475,0.000,0.000,36.000,0.000,4.087,-0.142,-0.008,-1.670,2.246,9.340,2.198
a,81479,0.000,0.000,36.000,0.000,4.087,-0.142,0.007,-0.525,2.225,9.330,2.201
a,81483,0.000,0.000,36.000,0.000,4.087,-0.203,-0.160,-0.693,2.218,9.363,2.198
a,81488,0.000,0.000,36.000,0.000,4.043,0.087,0.038,-0.052,2.228,9.325,2.219
a,81492,0.000,0.000,36.000,0.000,4.087,0.255,-0.145,0.758,2.197,9.325,2.207
a,81495,0.000,0.000,36.000,0.000,4.087,-0.096,-0.115,-0.632,2.215,9.333,2.178
a,81500,0.000,0.000,36.000,0.000,4.087,-0.065,0.053,0.666,2.199,9.357,2.207
a,81503,0.000,0.000,36.000,0.000,4.087,0.072,-0.069,-0.922,2.203,9.371,2.213
a,81507,0.000,0.000,36.000,0.000,4.131,-0.065,0.130,1.658,2.225,9.377,2.193
a,81511,0.000,0.000,36.000,0.000,4.087,-0.065,-0.222,0.406,2.201,9.340,2.213
a,81515,0.000,0.000,36.000,0.000,3.999,0.164,-0.115,1.277,2.235,9.354,2.211
a,81519,0.000,0.000,36.000,0.000,4.043,-0.065,-0.130,0.070,2.235,9.365,2.185
a,81523,0.000,0.000,36.000,0.000,4.087,0.072,-0.008,-0.647,2.225,9.331,2.201
a,81527,0.000,0.000,36.000,0.000,3.999,-0.050,0.007,-0.418,2.217,9.348,2.188
a,81531,0.000,0.000,36.000,0.000,4.043,-0.142,-0.115,-0.036,2.218,9.339,2.178
a,81535,0.000,0.000,36.000,0.000,4.043,-0.035,-0.206,0.345,2.199,9.330,2.205
a,81539,0.000,0.000,36.000,0.000,4.043,-0.065,0.069,0.452,2.210,9.339,2.201
a,81543,0.000,0.000,36.000,0.000,4.087,-0.050,0.069,1.002,2.179,9.335,2.229
a,81548,0.000,0.000,36.000,0.000,4.131,-0.081,0.236,0.819,2.222,9.323,2.211
a,81551,0.000,0.000,36.000,0.000,4.175,-0.172,0.007,0.941,2.224,9.353,2.195
a,81555,0.000,0.000,36.000,0.000,4.043,0.041,0.053,0.132,2.218,9.371,2.209
a,81559,0.000,0.000,36.000,0.000,4.131,-0.081,0.114,-0.586,2.217,9.349,2.213
a,81563,0.000,0.000,36.000,0.000,4.087,0.179,-0.069,-0.647,2.235,9.352,2.198
a,81567,0.000,0.000,36.000,0.000,4.087,-0.020,0.023,0.620,2.209,9.339,2.200
a,81571,0.000,0.000,36.000,0.000,4.131,0.087,-0.115,0.437,2.217,9.331,2.198
a,81575,0.000,0.000,36.000,0.000,4.043,-0.065,-0.069,-0.097,2.204,9.374,2.211
a,81579,0.000,0.000,36.000,0.000,4.131,-0.020,-0.069,-0.036,2.217,9.354,2.209
a,81583,0.000,0.000,36.000,0.000,4.043,0.026,0.007,-0.097,2.225,9.365,2.197
a,81588,0.000,0.000,36.000,0.000,4.087,-0.035,0.236,0.819,2.237,9.334,2.203
a,81591,0.000,0.000,36.000,0.000,4.131,-0.035,0.114,-0.739,2.218,9.363,2.217
a,81595,0.000,0.000,36.000,0.000,4.131,-0.035,0.053,-0.143,2.222,9.333,2.218
a,81599,0.000,0.000,36.000,0.000,3.999,-0.065,0.130,1.506,2.222,9.323,2.197
a,81603,0.000,0.000,36.000,0.000,4.043,0.072,-0.130,-1.578,2.224,9.349,2.166
a,81608,0.000,0.000,36.000,0.000,4.043,0.026,-0.344,-0.739,2.191,9.349,2.201
a,81612,0.000,0.000,36.000,0.000,4.043,0.041,0.267,0.162,2.225,9.303,2.207
a,81616,0.000,0.000,36.000,0.000,4.043,-0.004,-0.099,1.002,2.219,9.346,2.215
a,81619,0.000,0.000,36.000,0.000,4.131,0.148,-0.054,0.330,2.257,9.378,2.204
a,81623,0.000,0.000,36.000,0.000,4.087,0.087,-0.130,0.009,2.217,9.367,2.198
a,81627,0.000,0.000,36.000,0.000,4.043,-0.127,-0.176,-0.036,2.179,9.345,2.219
a,81631,0.000,0.000,36.000,0.000,4.131,0.041,0.099,-0.204,2.212,9.365,2.200
a,81635,0.000,0.000,36.000,0.000,4.087,0.026,-0.222,-1.288,2.194,9.340,2.191
a,81640,0.000,0.000,36.000,0.000,4.087,-0.142,-0.176,-0.907,2.204,9.369,2.206
a,81643,0.000,0.000,36.000,0.000,4.043,0.026,-0.054,0.025,2.206,9.355,2.215
a,81647,0.000,0.000,36.000,0.000,4.043,0.102,-0.099,1.277,2.228,9.331,2.213
a,81652,0.000,0.000,36.000,0.000,4.043,0.072,-0.084,0.376,2.219,9.371,2.205
a,81655,0.000,0.000,36.000,0.000,4.043,-0.096,-0.038,-1.029,2.212,9.336,2.212
a,81659,0.000,0.000,36.000,0.000,4.131,-0.035,0.267,-0.265,2.194,9.347,2.195
a,81663,0.000,0.000,36.000,0.000,4.131,0.026,0.007,-0.311,2.228,9.365,2.180
a,81667,0.000,0.000,36.000,0.000,4.131,0.164,0.053,1.643,2.194,9.342,2.201
a,81671,0.000,0.000,36.000,0.000,4.087,0.072,-0.115,-1.029,2.201,9.351,2.188
a,81675,0.000,0.000,36.000,0.000,3.999,-0.065,0.053,-0.250,2.217,9.373,2.201
a,81679,0.000,0.000,36.000,0.000,4.043,-0.020,0.023,0.513,2.224,9.357,2.201
a,81683,0.000,0.000,36.000,0.000,4.087,0.087,-0.054,0.055,2.210,9.321,2.191
a,81687,0.000,0.000,36.000,0.000,3.999,-0.081,0.175,0.406,2.201,9.352,2.205
a,81691,0.000,0.000,36.000,0.000,3.955,0.041,0.145,-0.250,2.199,9.353,2.188
a,81695,0.000,0.000,36.000,0.000,4.043,0.087,-0.283,0.116,2.230,9.383,2.194
a,81699,0.000,0.000,36.000,0.000,3.999,0.087,-0.054,0.223,2.237,9.322,2.213
a,81704,0.000,0.000,36.000,0.000,4.043,-0.035,-0.115,-0.036,2.204,9.353,2.201
a,81707,0.000,0.000,36.000,0.000,4.043,-0.203,0.130,0.895,2.206,9.341,2.221
a,81711,0.000,0.000,36.000,0.000,4.043,0.087,0.114,-0.159,2.218,9.331,2.200
a,81715,0.000,0.000,36.000,0.000,4.087,0.026,0.236,0.544,2.199,9.324,2.195
a,81719,0.000,0.000,36.000,0.000,4.087,0.179,-0.099,0.437,2.215,9.358,2.197
a,81723,0.000,0.000,36.000,0.000,4.043,-0.035,0.038,-1.120,2.234,9.330,2.211
a,81727,0.000,0.000,36.000,0.000,4.087,-0.020,0.130,0.666,2.218,9.339,2.169
a,81731,0.000,0.000,36.000,0.000,4.131,-0.142,-0.130,0.880,2.224,9.346,2.224
a,81735,0.000,0.000,36.000,0.000,4.131,0.133,-0.054,-0.326,2.217,9.337,2.203
a,81740,0.000,0.000,36.000,0.000,3.911,0.133,0.069,0.437,2.225,9.366,2.193
a,81744,0.000,0.000,36.000,0.000,3.955,0.041,0.130,0.773,2.219,9.324,2.176
a,81747,0.000,0.000,36.000,0.000,4.043,0.118,-0.008,-1.731,2.217,9.349,2.229
a,81751,0.000,0.000,36.000,0.000,4.131,0.148,-0.176,-0.372,2.217,9.339,2.194
a,81755,0.000,0.000,36.000,0.000,3.955,-0.035,0.069,0.895,2.210,9.333,2.191
a,81759,0.000,0.000,36.000,0.000,3.999,0.041,0.114,0.345,2.206,9.334,2.195
a,81764,0.000,0.000,36.000,0.000,4.131,-0.065,-0.038,0.513,2.240,9.346,2.209
a,81768,0.000,0.000,36.000,0.000,4.087,0.133,0.023,0.880,2.210,9.337,2.197
a,81771,0.000,0.000,36.000,0.000,4.087,-0.142,0.023,0.452,2.224,9.355,2.197
a,81775,0.000,0.000,36.000,0.000,4.131,0.133,-0.054,-0.540,2.204,9.336,2.206
a,81779,0.000,0.000,36.000,0.000,3.999,-0.142,0.069,0.284,2.234,9.347,2.193
a,81783,0.000,0.000,36.000,0.000,4.043,0.133,-0.008,-0.433,2.218,9.340,2.185
a,81788,0.000,0.000,36.000,0.000,4.043,0.148,-0.069,-0.159,2.207,9.347,2.206
a,81791,0.000,0.000,36.000,0.000,4.131,-0.020,0.160,0.773,2.199,9.342,2.223
a,81796,0.000,0.000,36.000,0.000,4.043,-0.035,0.023,0.895,2.218,9.336,2.193
a,81799,0.000,0.000,36.000,0.000,3.999,-0.081,0.038,-1.456,2.228,9.321,2.200
a,81803,0.000,0.000,36.000,0.000,4.087,0.026,-0.115,-1.075,2.222,9.357,2.185
a,81807,0.000,0.000,36.000,0.000,4.087,0.026,-0.115,-1.563,2.206,9.324,2.213
a,81811,0.000,0.000,36.000,0.000,4.087,-0.050,-0.160,1.063,2.241,9.327,2.209
a,81815,0.000,0.000,36.000,0.000,4.043,-0.127,-0.054,0.620,2.218,9.339,2.185
a,81819,0.000,0.000,36.000,0.000,4.087,0.026,-0.222,-0.800,2.188,9.360,2.211
a,81823,0.000,0.000,36.000,0.000,4.043,0.286,-0.099,0.269,2.218,9.353,2.206
a,81827,0.000,0.000,36.000,0.000,4.087,-0.081,0.114,-0.800,2.240,9.331,2.217
a,81831,0.000,0.000,36.000,0.000,4.087,0.026,0.236,0.712,2.199,9.355,2.176
a,81835,0.000,0.000,36.000,0.000,3.999,0.072,-0.267,0.162,2.222,9.327,2.193
a,81839,0.000,0.000,36.000,0.000,4.175,0.026,0.175,0.452,2.218,9.352,2.193
a,81843,0.000,0.000,36.000,0.000,4.087,0.133,-0.069,-0.922,2.194,9.340,2.194
a,81847,0.000,0.000,36.000,0.000,4.043,-0.127,-0.115,-0.204,2.215,9.385,2.201
a,81852,0.000,0.000,36.000,0.000,4.043,-0.142,0.282,0.544,2.222,9.352,2.201
a,81855,0.000,0.000,36.000,0.000,4.043,-0.096,-0.222,-1.013,2.210,9.343,2.215
a,81859,0.000,0.000,36.000,0.000,4.043,-0.020,-0.008,-0.097,2.225,9.354,2.186
a,81863,0.000,0.000,36.000,0.000,4.043,0.041,0.099,-0.143,2.240,9.340,2.195
a,81867,0.000,0.000,36.000,0.000,4.087,0.179,-0.008,-0.754,2.234,9.354,2.200
a,81871,0.000,0.000,36.000,0.000,4.087,0.179,-0.008,-0.601,2.233,9.349,2.200
a,81875,0.000,0.000,36.000,0.000,3.999,-0.127,0.221,0.651,2.191,9.349,2.215
a,81879,0.000,0.000,36.000,0.000,3.999,-0.081,0.145,-0.800,2.191,9.353,2.185
a,81883,0.000,0.000,36.000,0.000,4.087,-0.111,0.023,1.063,2.215,9.363,2.194
a,81888,0.000,0.000,36.000,0.000,4.043,0.041,0.160,0.452,2.222,9.354,2.207
a,81892,0.000,0.000,36.000,0.000,4.043,-0.218,0.160,-1.013,2.228,9.359,2.203
a,81895,0.000,0.000,36.000,0.000,4.131,0.133,0.389,0.101,2.209,9.333,2.205
a,81899,0.000,0.000,36.000,0.000,3.999,-0.127,0.114,0.773,2.187,9.334,2.192
a,81903,0.000,0.000,36.000,0.000,4.087,0.087,0.206,0.040,2.217,9.319,2.206
a,81907,0.000,0.000,36.000,0.000,4.043,0.026,0.023,0.345,2.219,9.343,2.199
a,81912,0.000,0.000,36.000,0.000,4.087,-0.157,0.053,-1.334,2.193,9.337,2.218
a,81916,0.000,0.000,36.000,0.000,4.043,-0.020,0.053,-0.097,2.188,9.339,2.204
a,81919,0.000,0.000,36.000,0.000,4.043,-0.020,0.023,0.284,2.218,9.349,2.213
a,81923,0.000,0.000,36.000,0.000,4.087,-0.035,-0.008,-0.632,2.210,9.324,2.215
a,81927,0.000,0.000,36.000,0.000,4.043,0.194,-0.099,0.330,2.219,9.351,2.195
a,81931,0.000,0.000,36.000,0.000,4.087,0.087,0.069,0.498,2.222,9.334,2.204
a,81935,0.000,0.000,36.000,0.000,3.999,-0.081,-0.222,-0.143,2.199,9.334,2.203
a,81940,0.000,0.000,36.000,0.000,4.087,-0.065,0.175,0.406,2.230,9.351,2.172
a,81944,0.000,0.000,36.000,0.000,4.131,0.270,-0.160,1.490,2.215,9.336,2.227
a,81947,0.000,0.000,36.000,0.000,4.087,0.240,-0.008,-1.349,2.212,9.346,2.201
a,81952,0.000,0.000,36.000,0.000,3.999,-0.004,-0.054,1.002,2.209,9.357,2.219
a,81955,0.000,0.000,36.000,0.000,4.087,-0.065,-0.008,0.132,2.199,9.305,2.204
a,81959,0.000,0.000,36.000,0.000,4.087,-0.065,0.221,0.712,2.217,9.342,2.200
a,81963,0.000,0.000,36.000,0.000,3.999,0.026,-0.054,-1.013,2.210,9.325,2.201
a,81967,0.000,0.000,36.000,0.000,4.087,-0.203,0.114,-0.357,2.209,9.376,2.203
a,81971,0.000,0.000,36.000,0.000,4.087,-0.035,-0.283,-0.632,2.215,9.351,2.204
a,81975,0.000,0.000,36.000,0.000,4.131,-0.081,-0.145,0.284,2.237,9.343,2.209
a,81979,0.000,0.000,36.000,0.000,4.087,-0.004,0.023,1.887,2.224,9.359,2.198
a,81983,0.000,0.000,36.000,0.000,4.131,-0.020,0.313,-0.159,2.209,9.369,2.206
a,81987,0.000,0.000,36.000,0.000,4.087,-0.065,0.069,1.170,2.199,9.353,2.199
a,81991,0.000,0.000,36.000,0.000,3.999,-0.142,0.099,-0.693,2.228,9.346,2.200
a,81995,0.000,0.000,36.000,0.000,3.999,-0.203,-0.115,-0.907,2.206,9.363,2.176
a,82000,0.000,0.000,36.000,0.000,4.087,0.240,0.236,0.696,2.222,9.328,2.189
a,82003,0.000,0.000,36.000,0.000,4.043,0.087,-0.115,-0.326,2.203,9.328,2.204
a,82007,0.000,0.000,36.000,0.000,4.087,-0.081,0.053,-0.311,2.222,9.345,2.218
a,82011,0.000,0.000,36.000,0.000,4.043,-0.050,0.023,-0.479,2.222,9.333,2.211
a,82015,0.000,0.000,36.000,0.000,4.087,0.148,-0.222,0.055,2.230,9.335,2.195
a,82019,0.000,0.000,36.000,0.000,4.087,-0.249,-0.115,0.025,2.225,9.359,2.217
a,82023,0.000,0.000,36.000,0.000,4.131,0.148,0.114,-0.326,2.222,9.354,2.195
a,82027,0.000,0.000,36.000,0.000,4.043,-0.004,0.069,1.170,2.203,9.357,2.192
a,82031,0.000,0.000,36.000,0.000,4.131,-0.065,-0.008,0.070,2.193,9.353,2.188
a,82035,0.000,0.000,36.000,0.000,4.043,-0.020,-0.054,0.513,2.215,9.354,2.200
a,82040,0.000,0.000,36.000,0.000,4.131,0.087,0.023,0.544,2.241,9.348,2.182
a,82043,0.000,0.000,36.000,0.000,4.043,0.072,-0.237,-0.922,2.224,9.324,2.194
a,82047,0.000,0.000,36.000,0.000,4.087,-0.020,-0.328,-0.357,2.237,9.360,2.195
a,82051,0.000,0.000,36.000,0.000,4.131,-0.020,0.053,0.070,2.188,9.335,2.200
a,82055,0.000,0.000,36.000,0.000,4.087,-0.142,-0.115,-0.097,2.224,9.352,2.209
a,82060,0.000,0.000,36.000,0.000,4.043,0.041,-0.069,-0.311,2.217,9.330,2.201
a,82064,0.000,0.000,36.000,0.000,4.087,0.087,0.236,1.857,2.210,9.319,2.206
a,82067,0.000,0.000,36.000,0.000,4.131,0.026,-0.008,-0.418,2.206,9.373,2.224
a,82071,0.000,0.000,36.000,0.000,4.043,-0.096,0.114,-0.800,2.209,9.341,2.191
a,82075,0.000,0.000,36.000,0.000,4.131,-0.142,0.023,0.452,2.203,9.309,2.195
a,82079,0.000,0.000,36.000,0.000,4.043,0.072,-0.008,-0.433,2.204,9.345,2.201
a,82083,0.000,0.000,36.000,0.000,3.999,-0.142,0.175,0.834,2.201,9.348,2.211
a,82087,0.000,0.000,36.000,0.000,4.087,0.072,-0.283,-1.242,2.222,9.331,2.180
a,82091,0.000,0.000,36.000,0.000,4.087,-0.081,0.114,-0.739,2.225,9.340,2.185
a,82096,0.000,0.000,36.000,0.000,4.087,-0.081,-0.344,-0.632,2.215,9.349,2.186
a,82099,0.000,0.000,36.000,0.000,4.087,0.026,0.007,-0.525,2.218,9.354,2.211
a,82104,0.000,0.000,36.000,0.000,4.043,-0.020,-0.099,0.284,2.218,9.371,2.182
a,82108,0.000,0.000,36.000,0.000,4.043,0.011,0.007,-0.907,2.217,9.353,2.205
a,82111,0.000,0.000,36.000,0.000,4.043,0.041,0.023,0.666,2.204,9.342,2.209
a,82115,0.000,0.000,36.000,0.000,4.087,0.148,0.023,0.269,2.219,9.348,2.179
a,82119,0.000,0.000,36.000,0.000,4.043,-0.081,-0.069,-0.739,2.217,9.363,2.204
a,82123,0.000,0.000,36.000,0.000,4.043,-0.203,0.069,0.666,2.203,9.347,2.217
a,82127,0.000,0.000,36.000,0.000,4.087,-0.020,-0.160,0.025,2.218,9.330,2.206
a,82131,0.000,0.000,36.000,0.000,3.955,-0.020,-0.008,0.070,2.218,9.351,2.186
a,82135,0.000,0.000,36.000,0.000,4.043,0.179,-0.130,-1.471,2.237,9.336,2.194
a,82139,0.000,0.000,36.000,0.000,3.999,-0.142,0.145,-0.586,2.215,9.339,2.213
a,82143,0.000,0.000,36.000,0.000,4.043,0.072,0.099,-0.647,2.217,9.335,2.188
a,82147,0.000,0.000,36.000,0.000,4.087,0.011,0.007,-1.075,2.204,9.351,2.193
a,82151,0.000,0.000,36.000,0.000,4.087,0.240,-0.008,-0.708,2.222,9.345,2.201
a,82156,0.000,0.000,36.000,0.000,4.087,-0.065,-0.130,0.025,2.219,9.329,2.172
a,82159,0.000,0.000,36.000,0.000,4.087,0.057,-0.160,-0.815,2.203,9.324,2.205
a,82163,0.000,0.000,36.000,0.000,3.999,0.087,0.099,-0.220,2.228,9.336,2.206
a,82167,0.000,0.000,36.000,0.000,4.043,0.148,-0.115,-0.372,2.204,9.335,2.180
a,82171,0.000,0.000,36.000,0.000,4.087,-0.020,-0.160,0.284,2.212,9.330,2.195
a,82175,0.000,0.000,36.000,0.000,4.087,0.087,0.007,-0.113,2.193,9.331,2.211
a,82179,0.000,0.000,36.000,0.000,4.043,-0.127,-0.160,-0.250,2.209,9.311,2.204
a,82183,0.000,0.000,36.000,0.000,4.087,0.026,0.007,0.025,2.233,9.337,2.170
a,82188,0.000,0.000,36.000,0.000,4.087,-0.065,-0.054,0.284,2.215,9.348,2.188
a,82192,0.000,0.000,36.000,0.000,4.043,0.072,0.007,-0.647,2.210,9.330,2.186
a,82195,0.000,0.000,36.000,0.000,4.131,-0.172,-0.222,0.941,2.206,9.336,2.201
a,82199,0.000,0.000,36.000,0.000,3.955,-0.035,-0.237,-0.418,2.204,9.321,2.180
a,82203,0.000,0.000,36.000,0.000,3.955,0.057,0.023,1.002,2.210,9.369,2.206
a,82207,0.000,0.000,36.000,0.000,3.999,0.041,0.221,-0.220,2.217,9.354,2.224
a,82212,0.000,0.000,36.000,0.000,3.955,-0.081,-0.054,0.177,2.217,9.351,2.182
a,82216,0.000,0.000,36.000,0.000,4.087,-0.065,0.023,0.345,2.194,9.328,2.223
a,82219,0.000,0.000,36.000,0.000,3.999,-0.035,0.053,-0.800,2.235,9.354,2.221
a,82223,0.000,0.000,36.000,0.000,4.043,-0.035,-0.008,-0.846,2.206,9.391,2.195
a,82227,0.000,0.000,36.000,0.000,4.087,0.148,-0.069,-0.159,2.233,9.336,2.206
a,82231,0.000,0.000,36.000,0.000,4.087,0.087,-0.237,0.223,2.195,9.341,2.188
a,82235,0.000,0.000,36.000,0.000,4.087,0.148,-0.160,0.712,2.224,9.349,2.176
a,82239,0.000,0.000,36.000,0.000,3.999,0.087,0.007,-0.372,2.209,9.316,2.191
a,82243,0.000,0.000,36.000,0.000,4.087,0.087,-0.130,0.009,2.225,9.330,2.185
a,82247,0.000,0.000,36.000,0.000,4.087,0.072,-0.176,-0.479,2.217,9.336,2.219
a,82252,0.000,0.000,36.000,0.000,4.087,0.041,0.007,0.834,2.228,9.348,2.211
a,82256,0.000,0.000,36.000,0.000,4.087,0.026,0.053,-0.464,2.217,9.317,2.176
a,82259,0.000,0.000,36.000,0.000,4.087,-0.127,0.130,0.895,2.219,9.369,2.201
a,82264,0.000,0.000,36.000,0.000,4.043,-0.081,0.114,-0.907,2.228,9.363,2.213
a,82268,0.000,0.000,36.000,0.000,4.087,-0.035,-0.328,-1.227,2.219,9.367,2.192
a,82271,0.000,0.000,36.000,0.000,3.999,0.179,0.175,0.605,2.215,9.345,2.191
a,82275,0.000,0.000,36.000,0.000,4.087,0.148,-0.115,0.544,2.212,9.342,2.209
a,82279,0.000,0.000,36.000,0.000,4.087,-0.050,0.114,-0.464,2.222,9.339,2.211
a,82283,0.000,0.000,36.000,0.000,4.087,-0.096,-0.222,-0.693,2.228,9.351,2.195
a,82287,0.000,0.000,36.000,0.000,4.131,0.347,-0.099,0.712,2.210,9.365,2.201
a,82291,0.000,0.000,36.000,0.000,4.043,0.026,0.069,0.116,2.187,9.340,2.218
a,82295,0.000,0.000,36.000,0.000,4.131,0.041,0.007,0.620,2.225,9.361,2.207
a,82299,0.000,0.000,36.000,0.000,4.087,-0.127,-0.069,-0.204,2.204,9.353,2.198
a,82303,0.000,0.000,36.000,0.000,4.087,0.041,0.053,-0.204,2.224,9.346,2.201
a,82307,0.000,0.000,36.000,0.000,4.131,-0.127,0.175,0.941,2.217,9.353,2.199
a,82312,0.000,0.000,36.000,0.000,3.999,0.179,0.007,-0.540,2.224,9.365,2.209
a,82315,0.000,0.000,36.000,0.000,4.087,0.026,-0.115,0.025,2.222,9.363,2.193
a,82319,0.000,0.000,36.000,0.000,4.087,-0.065,0.053,-0.357,2.212,9.349,2.201
a,82323,0.000,0.000,36.000,0.000,4.043,-0.035,-0.160,-0.418,2.201,9.357,2.201
a,82327,0.000,0.000,36.000,0.000,4.043,0.087,0.114,0.712,2.222,9.343,2.200
a,82331,0.000,0.000,36.000,0.000,4.043,-0.020,-0.054,-0.036,2.219,9.339,2.194
a,82335,0.000,0.000,36.000,0.000,4.043,0.072,-0.267,-1.029,2.203,9.371,2.185
a,82340,0.000,0.000,36.000,0.000,3.999,-0.096,0.007,-0.632,2.209,9.345,2.193
a,82343,0.000,0.000,36.000,0.000,4.087,-0.065,-0.069,-0.204,2.219,9.346,2.192
a,82347,0.000,0.000,36.000,0.000,4.087,-0.142,0.069,0.620,2.228,9.348,2.180
a,82351,0.000,0.000,36.000,0.000,4.043,-0.188,-0.160,0.834,2.203,9.336,2.195
a,82356,0.000,0.000,36.000,0.000,4.043,0.148,-0.054,0.055,2.201,9.336,2.185
a,82360,0.000,0.000,36.000,0.000,4.043,0.087,0.130,0.269,2.215,9.331,2.224
a,82364,0.000,0.000,36.000,0.000,4.087,-0.081,0.267,-0.647,2.217,9.336,2.227
a,82367,0.000,0.000,36.000,0.000,4.043,-0.127,0.007,0.177,2.217,9.353,2.201
a,82371,0.000,0.000,36.000,0.000,4.043,0.194,-0.176,0.116,2.218,9.377,2.201
a,82375,0.000,0.000,36.000,0.000,4.131,-0.142,0.053,-0.739,2.217,9.328,2.200
a,82379,0.000,0.000,36.000,0.000,4.131,0.179,0.007,0.223,2.217,9.348,2.182
a,82383,0.000,0.000,36.000,0.000,4.087,0.026,-0.008,-1.609,2.222,9.347,2.194
a,82388,0.000,0.000,36.000,0.000,4.087,0.102,-0.145,1.918,2.197,9.334,2.215
a,82392,0.000,0.000,36.000,0.000,4.087,-0.188,0.298,1.200,2.228,9.337,2.203
a,82395,0.000,0.000,36.000,0.000,4.131,0.072,0.160,-0.433,2.212,9.351,2.223
a,82400,0.000,0.000,36.000,0.000,4.087,-0.065,-0.054,0.132,2.224,9.359,2.198
a,82403,0.000,0.000,36.000,0.000,4.131,-0.004,0.007,1.338,2.228,9.351,2.195
a,82407,0.000,0.000,36.000,0.000,4.043,-0.065,-0.054,0.177,2.224,9.334,2.211
a,82411,0.000,0.000,36.000,0.000,3.999,-0.142,-0.008,-1.013,2.217,9.354,2.201
a,82415,0.000,0.000,36.000,0.000,4.131,0.026,-0.145,0.345,2.218,9.386,2.218
a,82419,0.000,0.000,36.000,0.000,4.043,-0.081,0.130,0.513,2.206,9.366,2.205
a,82423,0.000,0.000,36.000,0.000,4.043,0.026,-0.038,0.406,2.217,9.339,2.217
a,82427,0.000,0.000,36.000,0.000,3.955,0.087,-0.099,0.544,2.219,9.306,2.175
a,82431,0.000,0.000,36.000,0.000,4.131,0.148,0.023,1.154,2.218,9.351,2.215
a,82435,0.000,0.000,36.000,0.000,4.043,-0.111,0.007,1.063,2.224,9.363,2.201
a,82439,0.000,0.000,36.000,0.000,4.087,-0.035,-0.054,-0.418,2.215,9.316,2.195
a,82443,0.000,0.000,36.000,0.000,4.043,0.087,0.099,-0.326,2.186,9.373,2.195
a,82447,0.000,0.000,36.000,0.000,4.043,0.301,0.069,0.605,2.225,9.379,2.186
a,82452,0.000,0.000,36.000,0.000,4.131,-0.020,0.007,0.727,2.218,9.365,2.211
a,82455,0.000,0.000,36.000,0.000,4.087,0.041,-0.008,-0.143,2.235,9.374,2.176
a,82459,0.000,0.000,36.000,0.000,3.999,-0.127,0.007,0.620,2.225,9.346,2.186
a,82463,0.000,0.000,36.000,0.000,4.087,0.240,0.069,-0.281,2.230,9.340,2.217
a,82467,0.000,0.000,36.000,0.000,4.087,0.026,-0.237,-1.288,2.217,9.359,2.207
a,82471,0.000,0.000,36.000,0.000,4.087,-0.142,-0.099,0.559,2.206,9.336,2.189
a,82475,0.000,0.000,36.000,0.000,4.087,-0.127,-0.038,0.284,2.218,9.313,2.198
a,82479,0.000,0.000,36.000,0.000,4.087,-0.020,0.145,0.238,2.225,9.346,2.188
a,82483,0.000,0.000,36.000,0.000,4.087,-0.020,0.053,0.620,2.215,9.349,2.213
a,82488,0.000,0.000,36.000,0.000,4.043,0.102,0.069,1.109,2.233,9.340,2.194
a,82492,0.000,0.000,36.000,0.000,4.043,0.041,0.069,0.406,2.186,9.345,2.182
a,82495,0.000,0.000,36.000,0.000,4.087,0.026,-0.023,0.651,2.191,9.322,2.222
a,82499,0.000,0.000,36.000,0.000,4.087,0.255,0.053,-0.113,2.225,9.377,2.200
a,82503,0.000,0.000,36.000,0.000,4.043,-0.020,-0.222,0.132,2.212,9.360,2.195
a,82507,0.000,0.000,36.000,0.000,3.999,-0.081,-0.008,-1.075,2.184,9.340,2.211
a,82512,0.000,0.000,36.000,0.000,4.043,0.133,-0.008,-0.708,2.217,9.343,2.204
a,82516,0.000,0.000,36.000,0.000,4.087,-0.020,-0.023,1.109,2.210,9.360,2.225
a,82519,0.000,0.000,36.000,0.000,4.131,0.041,0.343,0.819,2.191,9.357,2.200
a,82523,0.000,0.000,36.000,0.000,4.043,0.041,-0.008,-0.250,2.253,9.365,2.185
a,82527,0.000,0.000,36.000,0.000,4.043,-0.188,0.114,0.895,2.212,9.359,2.207
a,82531,0.000,0.000,36.000,0.000,4.131,0.041,0.114,-0.357,2.218,9.342,2.201
a,82535,0.000,0.000,36.000,0.000,3.999,0.041,-0.145,0.284,2.230,9.335,2.211
a,82539,0.000,0.000,36.000,0.000,4.043,-0.127,-0.054,0.132,2.218,9.373,2.221
a,82543,0.000,0.000,36.000,0.000,4.087,-0.020,0.053,0.070,2.210,9.351,2.223
a,82547,0.000,0.000,36.000,0.000,4.131,0.087,-0.160,0.162,2.197,9.392,2.211
a,82552,0.000,0.000,36.000,0.000,4.087,0.072,0.114,0.162,2.206,9.319,2.191
a,82555,0.000,0.000,36.000,0.000,4.087,-0.142,-0.222,-0.250,2.228,9.359,2.191
a,82559,0.000,0.000,36.000,0.000,3.999,-0.172,-0.206,1.002,2.217,9.359,2.211
a,82564,0.000,0.000,36.000,0.000,4.087,-0.035,-0.038,0.773,2.235,9.337,2.209
a,82567,0.000,0.000,36.000,0.000,4.043,0.011,-0.115,-1.075,2.219,9.345,2.189
a,82571,0.000,0.000,36.000,0.000,4.043,0.041,0.069,1.399,2.240,9.334,2.215
a,82575,0.000,0.000,36.000,0.000,4.131,0.057,-0.160,-0.708,2.201,9.358,2.209
a,82579,0.000,0.000,36.000,0.000,3.999,-0.020,0.114,-0.357,2.212,9.319,2.182
a,82583,0.000,0.000,36.000,0.000,4.131,0.255,0.038,0.162,2.222,9.369,2.204
a,82587,0.000,0.000,36.000,0.000,4.087,-0.065,-0.054,0.070,2.230,9.349,2.217
a,82591,0.000,0.000,36.000,0.000,3.999,-0.020,-0.252,0.345,2.219,9.339,2.186
a,82595,0.000,0.000,36.000,0.000,4.087,0.133,-0.054,-0.113,2.204,9.366,2.195
a,82599,0.000,0.000,36.000,0.000,4.043,0.072,-0.038,0.269,2.212,9.391,2.193
a,82603,0.000,0.000,36.000,0.000,3.955,-0.172,0.130,0.941,2.222,9.334,2.209
a,82608,0.000,0.000,36.000,0.000,3.999,0.087,0.023,0.987,2.217,9.366,2.203
a,82611,0.000,0.000,36.000,0.000,4.043,0.072,0.099,-0.815,2.206,9.343,2.194
a,82615,0.000,0.000,36.000,0.000,4.131,0.057,0.053,1.292,2.211,9.334,2.209
a,82619,0.000,0.000,36.000,0.000,4.131,0.041,0.023,0.773,2.219,9.331,2.200
a,82623,0.000,0.000,36.000,0.000,3.999,0.041,-0.176,-0.311,2.206,9.324,2.192
a,82627,0.000,0.000,36.000,0.000,3.999,0.072,0.053,-0.601,2.199,9.351,2.211
a,82631,0.000,0.000,36.000,0.000,4.043,-0.188,-0.145,0.513,2.230,9.325,2.186
a,82635,0.000,0.000,36.000,0.000,3.999,-0.111,0.130,1.338,2.222,9.335,2.207
a,82640,0.000,0.000,36.000,0.000,4.087,-0.310,-0.160,-0.464,2.210,9.339,2.186
a,82644,0.000,0.000,36.000,0.000,4.131,0.011,0.007,-0.846,2.246,9.328,2.211
a,82647,0.000,0.000,36.000,0.000,4.087,-0.233,0.130,0.666,2.193,9.354,2.207
a,82651,0.000,0.000,36.000,0.000,3.999,0.148,-0.267,0.437,2.203,9.317,2.200
a,82655,0.000,0.000,36.000,0.000,4.043,0.026,-0.130,-1.288,2.218,9.359,2.219
a,82660,0.000,0.000,36.000,0.000,4.175,0.026,-0.435,-1.395,2.219,9.360,2.240
a,82664,0.000,0.000,36.000,0.000,4.131,-0.035,-0.008,-0.586,2.219,9.335,2.192
a,82668,0.000,0.000,36.000,0.000,4.043,-0.065,-0.008,0.025,2.235,9.347,2.198
a,82671,0.000,0.000,36.000,0.000,4.043,-0.127,0.023,0.513,2.222,9.367,2.213
a,82675,0.000,0.000,36.000,0.000,3.999,-0.050,0.160,1.170,2.206,9.325,2.194
a,82679,0.000,0.000,36.000,0.000,4.043,0.087,-0.038,0.391,2.246,9.379,2.195
a,82683,0.000,0.000,36.000,0.000,4.043,-0.111,-0.099,1.170,2.218,9.322,2.233
a,82687,0.000,0.000,36.000,0.000,4.043,-0.081,-0.054,-0.418,2.234,9.339,2.195
a,82692,0.000,0.000,36.000,0.000,4.131,0.102,0.114,0.925,2.210,9.339,2.180
a,82696,0.000,0.000,36.000,0.000,4.131,0.194,0.130,0.880,2.225,9.339,2.185
a,82699,0.000,0.000,36.000,0.000,4.131,0.087,-0.176,0.223,2.225,9.346,2.186
a,82704,0.000,0.000,36.000,0.000,4.043,0.087,-0.267,0.116,2.219,9.354,2.192
a,82707,0.000,0.000,36.000,0.000,4.175,-0.081,0.069,0.452,2.204,9.359,2.182
a,82711,0.000,0.000,36.000,0.000,3.999,0.072,-0.115,-0.540,2.230,9.364,2.195
a,82715,0.000,0.000,36.000,0.000,4.087,-0.218,0.236,-0.449,2.218,9.364,2.211
a,82719,0.000,0.000,36.000,0.000,4.087,-0.249,-0.237,-1.227,2.212,9.363,2.194
a,82723,0.000,0.000,36.000,0.000,4.043,-0.020,-0.054,-0.250,2.209,9.339,2.206
a,82727,0.000,0.000,36.000,0.000,4.043,-0.081,0.175,0.284,2.193,9.324,2.212
a,82731,0.000,0.000,36.000,0.000,4.043,0.026,0.114,-0.143,2.243,9.359,2.206
a,82735,0.000,0.000,36.000,0.000,4.043,-0.157,-0.054,-0.968,2.234,9.363,2.186
a,82739,0.000,0.000,36.000,0.000,4.043,0.087,-0.008,-0.372,2.222,9.335,2.211
a,82743,0.000,0.000,36.000,0.000,4.087,-0.020,-0.054,-0.357,2.222,9.346,2.217
a,82748,0.000,0.000,36.000,0.000,4.043,0.087,-0.145,0.605,2.199,9.351,2.198
a,82751,0.000,0.000,36.000,0.000,4.087,0.072,0.069,-0.235,2.201,9.318,2.199
a,82755,0.000,0.000,36.000,0.000,4.131,-0.035,0.160,0.070,2.222,9.358,2.201
a,82759,0.000,0.000,36.000,0.000,4.043,-0.004,0.023,1.170,2.222,9.359,2.209
a,82763,0.000,0.000,36.000,0.000,4.131,-0.065,0.023,0.620,2.209,9.328,2.217
a,82767,0.000,0.000,36.000,0.000,4.087,-0.127,0.145,-0.357,2.204,9.354,2.207
a,82771,0.000,0.000,36.000,0.000,4.043,0.041,-0.328,0.727,2.210,9.361,2.198
a,82775,0.000,0.000,36.000,0.000,3.999,0.194,-0.054,0.269,2.222,9.336,2.188
a,82779,0.000,0.000,36.000,0.000,4.131,0.087,-0.008,-0.220,2.219,9.339,2.200
a,82783,0.000,0.000,36.000,0.000,4.131,0.087,-0.283,-0.113,2.217,9.319,2.201
a,82787,0.000,0.000,36.000,0.000,4.043,0.087,0.191,1.124,2.218,9.331,2.193
a,82792,0.000,0.000,36.000,0.000,4.043,-0.004,-0.054,1.506,2.237,9.342,2.198
a,82795,0.000,0.000,36.000,0.000,4.043,-0.157,-0.054,-1.181,2.219,9.347,2.195
a,82799,0.000,0.000,36.000,0.000,4.043,-0.035,0.038,-0.632,2.188,9.343,2.192
a,82803,0.000,0.000,36.000,0.000,4.087,0.148,0.069,0.651,2.203,9.357,2.201
a,82807,0.000,0.000,36.000,0.000,4.087,0.286,-0.176,-0.647,2.204,9.339,2.198
a,82812,0.000,0.000,36.000,0.000,4.087,-0.020,0.007,-0.250,2.217,9.354,2.201
a,82816,0.000,0.000,36.000,0.000,4.043,-0.020,-0.099,0.620,2.215,9.371,2.191
a,82819,0.000,0.000,36.000,0.000,4.087,0.087,-0.054,-0.113,2.234,9.354,2.217
a,82823,0.000,0.000,36.000,0.000,4.175,-0.127,0.069,1.231,2.222,9.312,2.205
a,82828,0.000,0.000,36.000,0.000,4.087,0.179,0.023,0.651,2.224,9.345,2.193
a,82831,0.000,0.000,36.000,0.000,4.175,-0.065,0.007,-0.036,2.206,9.365,2.204
a,82835,0.000,0.000,36.000,0.000,4.087,-0.188,0.160,0.177,2.197,9.316,2.194
a,82839,0.000,0.000,36.000,0.000,4.043,-0.035,-0.054,-0.418,2.235,9.349,2.195
a,82844,0.000,0.000,36.000,0.000,4.087,-0.065,0.114,0.559,2.237,9.346,2.198
a,82847,0.000,0.000,36.000,0.000,3.999,0.286,-0.099,0.330,2.217,9.359,2.189
a,82852,0.000,0.000,36.000,0.000,4.175,0.255,-0.237,0.055,2.206,9.336,2.219
a,82856,0.000,0.000,36.000,0.000,4.087,-0.081,-0.130,-0.693,2.215,9.340,2.211
a,82859,0.000,0.000,36.000,0.000,4.087,0.087,0.069,0.758,2.230,9.359,2.192
a,82863,0.000,0.000,36.000,0.000,4.131,-0.020,-0.038,0.834,2.237,9.346,2.204
a,82867,0.000,0.000,36.000,0.000,4.087,0.164,0.267,-0.876,2.233,9.337,2.199
a,82871,0.000,0.000,36.000,0.000,3.999,0.041,-0.130,-0.204,2.210,9.329,2.192
a,82875,0.000,0.000,36.000,0.000,4.087,-0.081,-0.054,-0.097,2.224,9.345,2.224
a,82879,0.000,0.000,36.000,0.000,4.131,0.072,-0.069,-0.433,2.201,9.351,2.227
a,82883,0.000,0.000,36.000,0.000,4.131,-0.172,0.023,1.002,2.215,9.378,2.186
a,82887,0.000,0.000,36.000,0.000,4.087,-0.035,0.053,-0.968,2.224,9.379,2.213
a,82891,0.000,0.000,36.000,0.000,4.087,-0.035,0.099,-1.013,2.215,9.363,2.209
a,82895,0.000,0.000,36.000,0.000,4.087,0.209,0.114,1.383,2.206,9.342,2.219
a,82899,0.000,0.000,36.000,0.000,4.043,-0.065,0.038,-0.143,2.222,9.353,2.206
a,82904,0.000,0.000,36.000,0.000,4.043,-0.157,0.007,-1.013,2.225,9.337,2.230
a,82907,0.000,0.000,36.000,0.000,4.043,-0.142,-0.115,-0.739,2.209,9.348,2.209
a,82911,0.000,0.000,36.000,0.000,4.043,-0.050,0.023,-1.197,2.224,9.366,2.199
a,82915,0.000,0.000,36.000,0.000,4.043,-0.035,0.130,0.620,2.209,9.324,2.193
a,82919,0.000,0.000,36.000,0.000,4.043,0.087,-0.130,-0.113,2.212,9.345,2.191
a,82923,0.000,0.000,36.000,0.000,4.043,0.026,-0.054,-0.525,2.235,9.360,2.209
a,82927,0.000,0.000,36.000,0.000,4.131,0.148,-0.054,0.162,2.197,9.334,2.207
a,82931,0.000,0.000,36.000,0.000,4.043,0.026,0.069,0.452,2.219,9.351,2.199
a,82935,0.000,0.000,36.000,0.000,4.087,-0.035,0.069,0.345,2.201,9.339,2.197
a,82940,0.000,0.000,36.000,0.000,4.175,-0.020,-0.054,0.773,2.191,9.367,2.200
a,82944,0.000,0.000,36.000,0.000,4.043,0.041,-0.038,0.345,2.209,9.377,2.209
a,82947,0.000,0.000,36.000,0.000,4.043,0.148,-0.115,-0.372,2.206,9.357,2.217
a,82952,0.000,0.000,36.000,0.000,4.087,0.087,0.114,0.330,2.203,9.347,2.188
a,82955,0.000,0.000,36.000,0.000,4.087,0.072,0.053,-0.815,2.188,9.348,2.200
a,82959,0.000,0.000,36.000,0.000,3.955,-0.157,0.160,-0.464,2.210,9.351,2.218
a,82964,0.000,0.000,36.000,0.000,4.131,0.118,-0.160,-1.517,2.191,9.337,2.195
a,82968,0.000,0.000,36.000,0.000,4.043,-0.035,-0.176,-0.464,2.241,9.364,2.204
a,82972,0.000,0.000,36.000,0.000,4.087,0.057,-0.054,-1.349,2.212,9.343,2.197
a,82975,0.000,0.000,36.000,0.000,4.087,0.072,0.252,0.467,2.234,9.349,2.193
a,82979,0.000,0.000,36.000,0.000,4.043,0.133,0.160,-0.708,2.212,9.365,2.201
a,82983,0.000,0.000,36.000,0.000,4.043,-0.081,0.114,-0.097,2.204,9.324,2.193
a,82988,0.000,0.000,36.000,0.000,4.087,-0.081,0.053,-0.036,2.224,9.363,2.205
a,82991,0.000,0.000,36.000,0.000,3.999,-0.020,-0.008,-0.097,2.215,9.340,2.211
a,82996,0.000,0.000,36.000,0.000,4.131,0.026,-0.115,-0.693,2.224,9.349,2.194
a,82999,0.000,0.000,36.000,0.000,4.087,0.011,0.053,-0.525,2.218,9.365,2.199
a,83003,0.000,0.000,36.000,0.000,3.999,0.255,-0.054,0.162,2.222,9.360,2.230
a,83007,0.000,0.000,36.000,0.000,4.043,0.087,0.053,0.223,2.222,9.354,2.195
a,83011,0.000,0.000,36.000,0.000,4.043,0.133,-0.069,-0.647,2.197,9.330,2.207
a,83015,0.000,0.000,36.000,0.000,4.043,-0.081,-0.054,0.070,2.210,9.348,2.212
a,83019,0.000,0.000,36.000,0.000,4.043,-0.081,0.236,0.758,2.215,9.351,2.205
a,83023,0.000,0.000,36.000,0.000,4.087,-0.020,0.236,1.277,2.217,9.348,2.178
a,83027,0.000,0.000,36.000,0.000,4.043,-0.157,0.023,-0.433,2.224,9.376,2.241
a,83031,0.000,0.000,36.000,0.000,4.087,-0.142,0.099,-1.013,2.210,9.348,2.191
a,83035,0.000,0.000,36.000,0.000,4.131,-0.127,0.114,0.238,2.215,9.349,2.200
a,83039,0.000,0.000,36.000,0.000,4.043,-0.065,0.007,-0.036,2.234,9.351,2.215
a,83044,0.000,0.000,36.000,0.000,3.999,-0.203,-0.160,-0.693,2.233,9.367,2.213
a,83047,0.000,0.000,36.000,0.000,4.087,-0.065,0.038,1.322,2.224,9.349,2.206
a,83051,0.000,0.000,36.000,0.000,4.087,0.133,0.114,-1.090,2.215,9.330,2.198
a,83055,0.000,0.000,36.000,0.000,4.087,-0.157,-0.160,-0.800,2.217,9.365,2.201
a,83059,0.000,0.000,36.000,0.000,4.087,0.087,0.160,-0.052,2.222,9.359,2.206
a,83063,0.000,0.000,36.000,0.000,4.087,0.133,-0.267,-0.159,2.215,9.348,2.186
a,83067,0.000,0.000,36.000,0.000,4.175,0.041,0.007,0.345,2.212,9.357,2.227
a,83071,0.000,0.000,36.000,0.000,4.043,0.148,-0.069,0.009,2.210,9.337,2.213
a,83075,0.000,0.000,36.000,0.000,3.999,0.179,0.038,-0.815,2.217,9.342,2.182
a,83079,0.000,0.000,36.000,0.000,4.043,0.041,0.053,0.070,2.225,9.339,2.215
a,83083,0.000,0.000,36.000,0.000,4.087,0.133,0.221,-0.617,2.187,9.331,2.194
a,83088,0.000,0.000,36.000,0.000,4.131,-0.035,-0.054,-0.800,2.212,9.359,2.233
a,83092,0.000,0.000,36.000,0.000,4.043,0.164,-0.099,-0.769,2.204,9.347,2.195
a,83095,0.000,0.000,36.000,0.000,4.043,0.072,0.069,0.758,2.218,9.376,2.191
a,83099,0.000,0.000,36.000,0.000,4.087,-0.035,-0.054,0.177,2.212,9.359,2.203
a,83103,0.000,0.000,36.000,0.000,4.043,-0.127,0.114,0.727,2.219,9.336,2.213
a,83107,0.000,0.000,36.000,0.000,4.087,-0.233,-0.328,-0.357,2.237,9.359,2.195
a,83112,0.000,0.000,36.000,0.000,4.087,0.041,-0.054,0.834,2.234,9.323,2.191
a,83116,0.000,0.000,36.000,0.000,3.999,0.179,-0.160,-0.647,2.217,9.342,2.201
a,83119,0.000,0.000,36.000,0.000,4.043,-0.035,-0.160,-0.846,2.206,9.349,2.179
a,83123,0.000,0.000,36.000,0.000,4.131,-0.050,-0.054,1.399,2.222,9.349,2.200
a,83127,0.000,0.000,36.000,0.000,3.911,0.148,-0.054,-0.372,2.222,9.363,2.213
a,83131,0.000,0.000,36.000,0.000,4.043,-0.111,-0.267,1.002,2.225,9.379,2.185
a,83135,0.000,0.000,36.000,0.000,4.131,0.072,-0.038,0.208,2.217,9.351,2.205
a,83140,0.000,0.000,36.000,0.000,4.087,-0.004,0.069,1.658,2.248,9.359,2.192
a,83143,0.000,0.000,36.000,0.000,4.043,-0.081,-0.176,-0.907,2.249,9.342,2.194
a,83148,0.000,0.000,36.000,0.000,4.043,-0.065,0.023,1.399,2.191,9.323,2.209
a,83151,0.000,0.000,36.000,0.000,4.087,-0.020,-0.008,0.132,2.234,9.385,2.213
a,83155,0.000,0.000,36.000,0.000,3.999,-0.065,-0.054,0.284,2.224,9.348,2.207
a,83159,0.000,0.000,36.000,0.000,3.999,-0.142,0.267,-0.372,2.210,9.341,2.199
a,83163,0.000,0.000,36.000,0.000,4.043,0.026,0.053,-0.693,2.218,9.336,2.191
a,83167,0.000,0.000,36.000,0.000,3.955,-0.020,-0.099,0.452,2.212,9.345,2.213
a,83171,0.000,0.000,36.000,0.000,4.043,0.194,0.053,0.223,2.210,9.334,2.201
a,83175,0.000,0.000,36.000,0.000,4.087,0.133,-0.099,0.880,2.217,9.372,2.205
a,83179,0.000,0.000,36.000,0.000,4.087,0.225,-0.115,-1.304,2.222,9.348,2.205
a,83183,0.000,0.000,36.000,0.000,4.131,0.148,0.007,0.651,2.237,9.340,2.207
a,83187,0.000,0.000,36.000,0.000,3.999,0.041,-0.252,0.620,2.222,9.373,2.215
a,83191,0.000,0.000,36.000,0.000,4.131,0.041,-0.283,-0.204,2.212,9.354,2.201
a,83195,0.000,0.000,36.000,0.000,3.999,0.179,0.175,0.605,2.201,9.359,2.193
a,83200,0.000,0.000,36.000,0.000,4.087,-0.157,-0.054,-0.632,2.234,9.347,2.211
a,83203,0.000,0.000,36.000,0.000,4.087,0.301,-0.038,0.758,2.212,9.371,2.204
a,83207,0.000,0.000,36.000,0.000,4.131,-0.142,-0.115,-0.464,2.199,9.328,2.209
a,83211,0.000,0.000,36.000,0.000,4.043,-0.188,0.252,-0.113,2.201,9.371,2.194
a,83215,0.000,0.000,36.000,0.000,4.131,0.072,0.175,0.437,2.230,9.345,2.211
a,83219,0.000,0.000,36.000,0.000,3.999,-0.310,0.038,-0.693,2.217,9.329,2.192
a,83223,0.000,0.000,36.000,0.000,4.087,0.148,0.236,0.483,2.215,9.367,2.206
a,83227,0.000,0.000,36.000,0.000,4.087,-0.294,0.099,-0.143,2.228,9.374,2.201
a,83231,0.000,0.000,36.000,0.000,4.087,0.087,-0.099,0.651,2.209,9.357,2.200
a,83235,0.000,0.000,36.000,0.000,4.087,-0.081,-0.054,-0.632,2.217,9.331,2.209
a,83239,0.000,0.000,36.000,0.000,4.087,-0.035,0.221,-0.326,2.212,9.339,2.197
a,83243,0.000,0.000,36.000,0.000,4.131,0.011,0.114,-0.418,2.222,9.334,2.209
a,83247,0.000,0.000,36.000,0.000,4.131,0.072,-0.206,0.712,2.222,9.343,2.231
a,83251,0.000,0.000,36.000,0.000,4.043,-0.203,0.206,-0.433,2.217,9.374,2.206
a,83255,0.000,0.000,36.000,0.000,4.526,-0.020,0.023,1.002,2.212,9.367,2.217
a,83259,0.000,0.000,36.000,0.000,4.043,0.087,-0.038,0.880,2.209,9.330,2.195
a,83263,0.000,0.000,36.000,0.000,4.043,-0.020,0.206,0.116,2.237,9.325,2.192
a,83267,0.000,0.000,36.000,0.000,4.087,0.194,0.114,0.269,2.201,9.346,2.188
a,83271,0.000,0.000,36.000,0.000,4.175,0.148,0.206,-0.235,2.204,9.306,2.217
a,83275,0.000,0.000,36.000,0.000,4.087,-0.081,0.206,-0.479,2.209,9.336,2.182
a,83279,0.000,0.000,36.000,0.000,4.043,-0.127,0.007,-0.204,2.233,9.319,2.229
a,83283,0.000,0.000,36.000,0.000,4.087,-0.081,0.038,-0.632,2.218,9.354,2.192
a,83287,0.000,0.000,36.000,0.000,4.131,-0.233,-0.008,-0.250,2.225,9.345,2.213
a,83291,0.000,0.000,36.000,0.000,3.999,0.255,0.114,0.162,2.225,9.340,2.219
a,83296,0.000,0.000,36.000,0.000,4.087,-0.035,0.191,0.742,2.224,9.341,2.188
a,83300,0.000,0.000,36.000,0.000,4.087,0.026,-0.008,-1.013,2.217,9.345,2.215
a,83304,0.000,0.000,36.000,0.000,4.087,0.026,0.206,-0.479,2.209,9.339,2.194
a,83307,0.000,0.000,36.000,0.000,3.955,-0.020,-0.008,0.132,2.219,9.335,2.188
a,83312,0.000,0.000,36.000,0.000,4.131,-0.142,-0.008,-0.418,2.222,9.333,2.191
a,83315,0.000,0.000,36.000,0.000,4.131,-0.127,0.160,0.070,2.222,9.351,2.215
a,83319,0.000,0.000,36.000,0.000,4.087,0.179,-0.160,0.055,2.241,9.323,2.180
a,83323,0.000,0.000,36.000,0.000,4.087,-0.065,-0.023,1.109,2.222,9.327,2.205
a,83327,0.000,0.000,36.000,0.000,4.043,0.026,-0.130,-0.418,2.215,9.335,2.200
a,83331,0.000,0.000,36.000,0.000,4.087,0.087,0.130,2.147,2.224,9.324,2.184
a,83336,0.000,0.000,36.000,0.000,4.175,0.148,0.099,0.162,2.228,9.325,2.200
a,83340,0.000,0.000,36.000,0.000,3.999,0.026,0.053,-0.800,2.224,9.349,2.186
a,83344,0.000,0.000,36.000,0.000,4.043,-0.065,0.007,0.238,2.191,9.297,2.176
a,83347,0.000,0.000,36.000,0.000,3.999,0.148,-0.069,-0.113,2.203,9.335,2.219
a,83351,0.000,0.000,36.000,0.000,4.043,-0.065,0.252,0.055,2.217,9.340,2.182
a,83355,0.000,0.000,36.000,0.000,4.131,-0.081,-0.328,-0.036,2.230,9.343,2.205
a,83359,0.000,0.000,36.000,0.000,4.175,0.026,0.053,0.177,2.203,9.334,2.218
a,83363,0.000,0.000,36.000,0.000,4.043,0.148,0.145,0.116,2.249,9.328,2.198
a,83367,0.000,0.000,36.000,0.000,4.043,-0.233,0.069,0.834,2.201,9.348,2.219
a,83371,0.000,0.000,36.000,0.000,4.175,0.072,0.282,0.376,2.201,9.333,2.218
a,83375,0.000,0.000,36.000,0.000,3.999,0.041,0.038,-0.357,2.224,9.336,2.191
a,83379,0.000,0.000,36.000,0.000,4.087,0.179,0.053,-0.861,2.240,9.335,2.192
a,83383,0.000,0.000,36.000,0.000,4.043,0.087,0.099,0.009,2.228,9.357,2.209
a,83388,0.000,0.000,36.000,0.000,4.087,-0.020,0.038,0.132,2.230,9.307,2.209
a,83391,0.000,0.000,36.000,0.000,4.087,-0.203,-0.237,-0.418,2.224,9.319,2.194
a,83395,0.000,0.000,36.000,0.000,4.087,0.026,-0.115,0.238,2.234,9.358,2.197
a,83399,0.000,0.000,36.000,0.000,4.043,-0.065,-0.222,0.284,2.224,9.322,2.215
a,83403,0.000,0.000,36.000,0.000,4.131,0.072,0.130,0.651,2.225,9.316,2.197
a,83407,0.000,0.000,36.000,0.000,4.043,-0.020,-0.099,0.620,2.212,9.324,2.195
a,83411,0.000,0.000,36.000,0.000,4.131,0.041,-0.038,0.513,2.230,9.353,2.192
a,83415,0.000,0.000,36.000,0.000,4.043,0.041,0.007,0.727,2.199,9.335,2.195
a,83419,0.000,0.000,36.000,0.000,3.955,-0.020,0.053,0.132,2.210,9.310,2.198
a,83423,0.000,0.000,36.000,0.000,4.043,-0.142,0.007,-1.013,2.217,9.334,2.191
a,83427,0.000,0.000,36.000,0.000,4.087,-0.020,-0.115,0.513,2.225,9.321,2.206
a,83431,0.000,0.000,36.000,0.000,4.043,-0.142,0.007,0.025,2.218,9.341,2.197
a,83435,0.000,0.000,36.000,0.000,4.131,-0.035,-0.069,-0.525,2.206,9.322,2.194
a,83440,0.000,0.000,36.000,0.000,3.999,0.026,-0.054,-0.097,2.217,9.324,2.199
a,83444,0.000,0.000,36.000,0.000,4.131,-0.050,0.053,1.399,2.209,9.346,2.195
a,83447,0.000,0.000,36.000,0.000,4.131,0.148,0.114,0.330,2.194,9.343,2.217
a,83451,0.000,0.000,36.000,0.000,4.131,-0.035,-0.008,-1.013,2.212,9.347,2.195
a,83455,0.000,0.000,36.000,0.000,4.131,0.072,0.023,0.758,2.228,9.343,2.186
a,83459,0.000,0.000,36.000,0.000,4.043,0.087,-0.130,0.162,2.204,9.331,2.182
a,83464,0.000,0.000,36.000,0.000,5.625,0.072,0.007,0.116,2.225,9.348,2.203
a,83468,0.000,0.000,36.000,0.000,4.131,0.118,0.007,-0.983,2.225,9.334,2.189
a,83472,0.000,0.000,36.000,0.000,4.131,-0.065,0.175,0.834,2.215,9.328,2.176
a,83475,0.000,0.000,36.000,0.000,4.043,0.026,-0.115,-0.586,2.217,9.313,2.188
a,83479,0.000,0.000,36.000,0.000,4.043,0.240,-0.160,-0.708,2.186,9.313,2.186
a,83483,0.000,0.000,36.000,0.000,4.175,0.026,0.236,0.437,2.219,9.324,2.186
a,83487,0.000,0.000,36.000,0.000,4.087,0.057,-0.038,1.002,2.215,9.334,2.198
a,83491,0.000,0.000,36.000,0.000,4.043,0.148,-0.054,0.391,2.224,9.306,2.217
a,83496,0.000,0.000,36.000,0.000,4.131,-0.020,-0.130,-0.036,2.209,9.349,2.198
a,83500,0.000,0.000,36.000,0.000,4.043,0.209,0.114,1.277,2.234,9.351,2.209
a,83503,0.000,0.000,36.000,0.000,4.043,-0.065,0.038,-0.357,2.222,9.321,2.192
a,83508,0.000,0.000,36.000,0.000,3.999,-0.172,-0.160,1.063,2.224,9.334,2.179
a,83511,0.000,0.000,36.000,0.000,3.999,-0.035,0.099,-0.586,2.230,9.339,2.204
a,83515,0.000,0.000,36.000,0.000,4.087,0.301,-0.115,0.712,2.224,9.346,2.198
a,83519,0.000,0.000,36.000,0.000,4.131,-0.020,0.236,0.330,2.241,9.339,2.211
a,83523,0.000,0.000,36.000,0.000,4.131,0.057,0.114,1.063,2.204,9.305,2.236
a,83527,0.000,0.000,36.000,0.000,4.131,0.087,-0.115,-0.159,2.204,9.348,2.206
a,83531,0.000,0.000,36.000,0.000,4.043,-0.020,-0.267,-0.250,2.191,9.348,2.191
a,83535,0.000,0.000,36.000,0.000,4.043,-0.035,0.023,0.406,2.197,9.310,2.188
a,83539,0.000,0.000,36.000,0.000,4.131,-0.065,-0.115,0.834,2.207,9.334,2.209
a,83543,0.000,0.000,36.000,0.000,4.087,-0.065,-0.222,0.177,2.206,9.319,2.200
a,83547,0.000,0.000,36.000,0.000,4.087,0.118,0.007,-0.540,2.218,9.310,2.218
a,83551,0.000,0.000,36.000,0.000,3.955,-0.035,-0.130,-0.907,2.235,9.340,2.186
a,83555,0.000,0.000,36.000,0.000,4.043,-0.065,0.267,0.330,2.194,9.305,2.200
a,83560,0.000,0.000,36.000,0.000,3.999,0.041,-0.115,0.773,2.204,9.357,2.198
a,83563,0.000,0.000,36.000,0.000,3.999,-0.142,-0.130,-0.632,2.230,9.330,2.173
a,83567,0.000,0.000,36.000,0.000,4.087,-0.142,0.145,0.391,2.237,9.322,2.222
a,83571,0.000,0.000,36.000,0.000,4.131,0.072,-0.160,-0.326,2.212,9.337,2.199
a,83575,0.000,0.000,36.000,0.000,4.131,0.026,0.160,-0.311,2.210,9.307,2.221
a,83579,0.000,0.000,36.000,0.000,4.087,0.087,0.007,0.009,2.222,9.319,2.201
a,83583,0.000,0.000,36.000,0.000,4.043,0.179,-0.160,-0.861,2.219,9.354,2.173
a,83588,0.000,0.000,36.000,0.000,4.087,-0.020,-0.115,0.025,2.218,9.331,2.223
a,83592,0.000,0.000,36.000,0.000,4.131,0.087,-0.160,0.269,2.223,9.301,2.223
a,83595,0.000,0.000,36.000,0.000,4.131,0.026,-0.054,-0.968,2.218,9.345,2.206
a,83599,0.000,0.000,36.000,0.000,3.999,0.041,0.160,0.727,2.222,9.340,2.195
a,83603,0.000,0.000,36.000,0.000,3.999,-0.050,0.023,1.002,2.237,9.335,2.204
a,83608,0.000,0.000,36.000,0.000,4.087,0.087,-0.008,-0.113,2.199,9.334,2.186
a,83612,0.000,0.000,36.000,0.000,4.043,0.072,-0.054,0.116,2.217,9.323,2.201
a,83616,0.000,0.000,36.000,0.000,4.131,-0.127,0.069,0.559,2.206,9.334,2.194
a,83619,0.000,0.000,36.000,0.000,4.087,-0.035,0.160,-0.036,2.237,9.333,2.195
a,83623,0.000,0.000,36.000,0.000,4.043,-0.127,0.160,0.177,2.204,9.357,2.200
a,83627,0.000,0.000,36.000,0.000,3.999,0.041,0.114,0.284,2.213,9.337,2.224
a,83631,0.000,0.000,36.000,0.000,3.999,-0.020,0.007,0.513,2.233,9.351,2.186
a,83635,0.000,0.000,36.000,0.000,4.087,0.179,0.099,-0.815,2.193,9.334,2.224
a,83639,0.000,0.000,36.000,0.000,4.482,0.255,-0.115,0.009,2.212,9.348,2.213
a,83643,0.000,0.000,36.000,0.000,4.087,0.011,0.053,-0.632,2.219,9.345,2.203
a,83647,0.000,0.000,36.000,0.000,3.999,0.087,-0.069,-0.326,2.197,9.345,2.211
a,83652,0.000,0.000,36.000,0.000,4.131,0.072,-0.130,-1.410,2.197,9.323,2.209
a,83655,0.000,0.000,36.000,0.000,4.087,0.102,0.114,1.383,2.197,9.336,2.192
a,83660,0.000,0.000,36.000,0.000,4.087,0.179,0.069,-0.388,2.233,9.322,2.199
a,83664,0.000,0.000,36.000,0.000,4.043,-0.065,0.069,0.559,2.212,9.321,2.195
a,83667,0.000,0.000,36.000,0.000,4.087,-0.127,0.343,0.437,2.210,9.348,2.217
a,83671,0.000,0.000,36.000,0.000,3.999,0.102,0.007,1.154,2.209,9.353,2.204
a,83675,0.000,0.000,36.000,0.000,4.175,-0.127,-0.267,0.025,2.225,9.353,2.180
a,83679,0.000,0.000,36.000,0.000,4.087,-0.020,-0.130,-0.311,2.241,9.323,2.186
a,83683,0.000,0.000,36.000,0.000,4.087,-0.020,0.099,-0.204,2.219,9.339,2.195
a,83687,0.000,0.000,36.000,0.000,4.087,-0.020,-0.222,-0.036,2.194,9.317,2.195
a,83691,0.000,0.000,36.000,0.000,4.087,0.026,0.114,-0.586,2.225,9.342,2.195
a,83695,0.000,0.000,36.000,0.000,4.131,-0.081,0.023,0.727,2.228,9.352,2.197
a,83699,0.000,0.000,36.000,0.000,4.131,-0.020,-0.099,0.773,2.224,9.360,2.221
a,83703,0.000,0.000,36.000,0.000,4.175,0.087,0.221,0.635,2.222,9.348,2.182
a,83707,0.000,0.000,36.000,0.000,3.999,0.148,0.023,0.712,2.230,9.359,2.195
a,83712,0.000,0.000,36.000,0.000,4.043,-0.020,0.038,0.177,2.206,9.315,2.192
a,83715,0.000,0.000,36.000,0.000,3.999,0.087,-0.099,0.330,2.217,9.319,2.179
a,83719,0.000,0.000,36.000,0.000,3.999,0.118,-0.191,-1.731,2.224,9.366,2.213
a,83723,0.000,0.000,36.000,0.000,4.131,-0.203,-0.008,-1.395,2.215,9.342,2.223
a,83727,0.000,0.000,36.000,0.000,4.087,0.148,0.007,0.498,2.211,9.339,2.201
a,83731,0.000,0.000,36.000,0.000,3.999,-0.035,-0.038,0.345,2.222,9.334,2.228
a,83735,0.000,0.000,36.000,0.000,4.087,0.026,0.053,0.070,2.225,9.337,2.215
a,83739,0.000,0.000,36.000,0.000,4.131,-0.065,-0.160,0.345,2.224,9.345,2.201
a,83743,0.000,0.000,36.000,0.000,4.043,-0.188,0.069,0.284,2.193,9.328,2.206
a,83748,0.000,0.000,36.000,0.000,4.087,-0.020,0.099,-0.143,2.201,9.349,2.204
a,83752,0.000,0.000,36.000,0.000,4.087,-0.065,-0.328,0.025,2.204,9.339,2.186
a,83755,0.000,0.000,36.000,0.000,4.087,-0.127,-0.115,0.406,2.210,9.336,2.213
a,83759,0.000,0.000,36.000,0.000,4.043,0.133,0.206,-1.212,2.197,9.346,2.194
a,83763,0.000,0.000,36.000,0.000,4.087,-0.081,0.007,-0.418,2.219,9.317,2.200
a,83767,0.000,0.000,36.000,0.000,4.087,0.087,-0.267,0.651,2.222,9.307,2.206
a,83772,0.000,0.000,36.000,0.000,4.043,0.133,0.038,-0.647,2.201,9.359,2.191
a,83776,0.000,0.000,36.000,0.000,4.043,-0.127,0.007,0.620,2.192,9.319,2.192
a,83780,0.000,0.000,36.000,0.000,4.175,0.041,0.069,0.727,2.203,9.336,2.229
a,83783,0.000,0.000,36.000,0.000,4.131,0.087,-0.237,-0.326,2.235,9.352,2.167
a,83787,0.000,0.000,36.000,0.000,3.999,0.087,0.221,0.864,2.243,9.304,2.195
a,83791,0.000,0.000,36.000,0.000,4.043,0.087,0.114,-0.159,2.204,9.317,2.217
a,83795,0.000,0.000,36.000,0.000,4.043,-0.142,-0.054,-1.075,2.225,9.311,2.201
a,83799,0.000,0.000,36.000,0.000,4.087,0.041,0.130,0.559,2.225,9.328,2.204
a,83803,0.000,0.000,36.000,0.000,4.087,-0.035,-0.054,-0.204,2.209,9.339,2.211
a,83807,0.000,0.000,36.000,0.000,4.043,0.087,-0.115,0.162,2.209,9.328,2.224
a,83811,0.000,0.000,36.000,0.000,3.999,-0.127,-0.344,0.070,2.219,9.305,2.223
a,83815,0.000,0.000,36.000,0.000,4.087,0.087,0.221,-0.006,2.212,9.321,2.200
a,83819,0.000,0.000,36.000,0.000,4.219,-0.188,-0.176,0.177,2.218,9.325,2.198
a,83823,0.000,0.000,36.000,0.000,4.131,-0.035,-0.222,-0.632,2.224,9.307,2.213
a,83827,0.000,0.000,36.000,0.000,4.087,0.164,-0.054,-0.983,2.234,9.351,2.197
a,83831,0.000,0.000,36.000,0.000,4.043,-0.188,0.130,0.941,2.193,9.318,2.178
a,83835,0.000,0.000,36.000,0.000,4.131,0.087,0.053,0.819,2.212,9.333,2.198
a,83840,0.000,0.000,36.000,0.000,3.999,-0.020,0.053,0.345,2.234,9.306,2.198
a,83844,0.000,0.000,36.000,0.000,4.043,0.041,0.053,0.345,2.197,9.322,2.194
a,83847,0.000,0.000,36.000,0.000,3.999,0.026,0.038,-0.464,2.197,9.330,2.194
a,83851,0.000,0.000,36.000,0.000,3.999,-0.081,0.007,-0.097,2.228,9.327,2.199
a,83856,0.000,0.000,36.000,0.000,4.043,0.133,-0.008,-0.433,2.225,9.282,2.191
a,83860,0.000,0.000,36.000,0.000,4.131,-0.188,0.023,0.559,2.212,9.319,2.209
a,83863,0.000,0.000,36.000,0.000,4.087,0.087,0.007,0.162,2.210,9.353,2.217
a,83868,0.000,0.000,36.000,0.000,4.087,0.270,0.007,1.048,2.230,9.324,2.192
a,83871,0.000,0.000,36.000,0.000,3.999,0.026,0.007,-1.395,2.224,9.324,2.186
a,83875,0.000,0.000,36.000,0.000,4.043,0.072,-0.176,-1.517,2.225,9.305,2.198
a,83879,0.000,0.000,36.000,0.000,4.043,-0.020,-0.008,0.025,2.193,9.284,2.206
a,83883,0.000,0.000,36.000,0.000,3.911,0.087,0.069,0.330,2.241,9.340,2.195
a,83888,0.000,0.000,36.000,0.000,4.043,-0.127,0.053,0.406,2.217,9.337,2.215
a,83891,0.000,0.000,36.000,0.000,3.999,-0.035,0.145,-0.739,2.219,9.306,2.204
a,83895,0.000,0.000,36.000,0.000,4.087,0.026,-0.115,0.132,2.217,9.347,2.205
a,83900,0.000,0.000,36.000,0.000,4.087,-0.020,0.099,-0.357,2.235,9.309,2.211
a,83903,0.000,0.000,36.000,0.000,4.131,-0.065,0.114,0.406,2.230,9.339,2.204
a,83907,0.000,0.000,36.000,0.000,4.175,-0.020,-0.176,0.025,2.234,9.324,2.223
a,83911,0.000,0.000,36.000,0.000,3.999,0.041,0.053,0.284,2.210,9.334,2.221
a,83915,0.000,0.000,36.000,0.000,4.131,0.041,-0.054,0.406,2.235,9.340,2.215
a,83919,0.000,0.000,36.000,0.000,4.087,-0.218,0.069,1.231,2.217,9.305,2.195
a,83923,0.000,0.000,36.000,0.000,4.087,0.133,-0.130,-1.578,2.218,9.298,2.211
a,83927,0.000,0.000,36.000,0.000,3.999,-0.004,-0.237,0.422,2.221,9.349,2.219
a,83931,0.000,0.000,36.000,0.000,4.087,0.072,-0.237,-1.624,2.203,9.311,2.215
a,83935,0.000,0.000,36.000,0.000,4.043,-0.050,0.053,1.063,2.212,9.322,2.207
a,83939,0.000,0.000,36.000,0.000,4.087,0.041,-0.145,0.834,2.217,9.364,2.206
a,83943,0.000,0.000,36.000,0.000,4.043,-0.065,-0.008,-0.311,2.215,9.331,2.204
a,83947,0.000,0.000,36.000,0.000,4.043,0.026,-0.176,-1.502,2.218,9.324,2.198
a,83952,0.000,0.000,36.000,0.000,4.175,0.057,0.053,1.063,2.218,9.337,2.191
a,83955,0.000,0.000,36.000,0.000,3.999,-0.035,-0.176,-0.739,2.206,9.319,2.215
a,83959,0.000,0.000,36.000,0.000,4.087,0.194,-0.099,0.651,2.233,9.322,2.200
a,83963,0.000,0.000,36.000,0.000,4.131,0.194,0.038,-0.052,2.194,9.317,2.194
a,83967,0.000,0.000,36.000,0.000,4.131,0.041,0.069,0.513,2.217,9.292,2.213
a,83971,0.000,0.000,36.000,0.000,4.131,-0.020,0.007,0.620,2.230,9.323,2.186
a,83975,0.000,0.000,36.000,0.000,4.131,-0.127,0.023,0.666,2.224,9.317,2.217
a,83979,0.000,0.000,36.000,0.000,4.043,-0.127,0.252,0.009,2.209,9.340,2.206
a,83983,0.000,0.000,36.000,0.000,4.087,0.041,0.007,0.559,2.217,9.325,2.209
a,83988,0.000,0.000,36.000,0.000,4.087,-0.035,0.114,-0.693,2.222,9.319,2.179
a,83992,0.000,0.000,36.000,0.000,4.043,0.041,0.038,-0.036,2.181,9.325,2.209
a,83995,0.000,0.000,36.000,0.000,4.043,-0.065,0.007,0.666,2.217,9.307,2.204
a,83999,0.000,0.000,36.000,0.000,3.999,0.087,0.053,0.712,2.209,9.325,2.206
a,84003,0.000,0.000,36.000,0.000,4.043,0.133,0.099,-0.922,2.234,9.343,2.198
a,84007,0.000,0.000,36.000,0.000,4.087,-0.065,0.099,-0.357,2.222,9.348,2.209
a,84012,0.000,0.000,36.000,0.000,4.087,-0.065,0.145,0.025,2.218,9.360,2.211
a,84016,0.000,0.000,36.000,0.000,4.043,0.026,-0.237,-0.693,2.218,9.316,2.198
a,84019,0.000,0.000,36.000,0.000,4.087,0.255,0.007,0.437,2.230,9.330,2.179
a,84023,0.000,0.000,36.000,0.000,4.043,-0.035,0.007,-0.632,2.188,9.325,2.201
a,84027,0.000,0.000,36.000,0.000,4.043,0.041,-0.130,-0.204,2.224,9.323,2.217
a,84031,0.000,0.000,36.000,0.000,4.043,-0.065,-0.160,-0.036,2.212,9.348,2.235
a,84035,0.000,0.000,36.000,0.000,4.043,0.026,-0.222,-0.525,2.215,9.321,2.221
a,84040,0.000,0.000,36.000,0.000,4.087,-0.065,-0.069,-0.311,2.218,9.353,2.201
a,84043,0.000,0.000,36.000,0.000,4.131,-0.050,-0.099,1.063,2.194,9.325,2.188
a,84048,0.000,0.000,36.000,0.000,4.043,0.087,0.130,0.391,2.234,9.317,2.191
a,84051,0.000,0.000,36.000,0.000,4.087,0.041,-0.008,0.070,2.204,9.348,2.180
a,84055,0.000,0.000,36.000,0.000,4.043,-0.111,-0.054,1.338,2.203,9.365,2.204
a,84059,0.000,0.000,36.000,0.000,4.131,-0.065,-0.008,-0.097,2.233,9.321,2.201
a,84063,0.000,0.000,36.000,0.000,4.043,0.102,0.053,1.872,2.209,9.334,2.200
a,84067,0.000,0.000,36.000,0.000,4.043,0.087,0.038,-0.052,2.235,9.336,2.201
a,84071,0.000,0.000,36.000,0.000,4.087,-0.188,-0.008,0.238,2.222,9.349,2.195
a,84075,0.000,0.000,36.000,0.000,4.087,0.072,0.114,0.116,2.212,9.328,2.191
a,84079,0.000,0.000,36.000,0.000,4.087,0.041,0.160,0.895,2.210,9.334,2.185
a,84083,0.000,0.000,36.000,0.000,4.087,-0.188,-0.008,0.132,2.224,9.351,2.224
a,84087,0.000,0.000,36.000,0.000,4.087,-0.065,-0.069,-0.311,2.212,9.351,2.209
a,84092,0.000,0.000,36.000,0.000,4.087,-0.020,0.313,0.009,2.197,9.328,2.200
a,84095,0.000,0.000,36.000,0.000,4.219,-0.035,-0.069,-0.846,2.217,9.342,2.204
a,84099,0.000,0.000,36.000,0.000,4.175,0.194,0.114,0.758,2.218,9.348,2.200
a,84103,0.000,0.000,36.000,0.000,4.175,-0.142,0.145,-1.456,2.206,9.335,2.192
a,84107,0.000,0.000,36.000,0.000,4.043,-0.065,-0.069,0.132,2.228,9.318,2.206
a,84111,0.000,0.000,36.000,0.000,4.087,0.072,-0.344,-0.922,2.217,9.311,2.198
a,84115,0.000,0.000,36.000,0.000,4.043,0.301,-0.099,0.498,2.225,9.319,2.213
a,84119,0.000,0.000,36.000,0.000,4.131,0.087,0.160,0.605,2.233,9.342,2.200
a,84123,0.000,0.000,36.000,0.000,4.131,-0.111,0.175,1.002,2.212,9.349,2.200
a,84127,0.000,0.000,36.000,0.000,4.043,-0.188,0.114,0.834,2.224,9.337,2.194
a,84131,0.000,0.000,36.000,0.000,4.087,0.041,0.221,0.498,2.209,9.322,2.224
a,84136,0.000,0.000,36.000,0.000,4.043,0.041,-0.099,0.895,2.224,9.339,2.192
a,84140,0.000,0.000,36.000,0.000,4.087,-0.020,0.007,0.620,2.218,9.311,2.235
a,84144,0.000,0.000,36.000,0.000,4.087,0.041,0.099,-0.357,2.225,9.345,2.219
a,84147,0.000,0.000,36.000,0.000,4.175,-0.020,0.099,0.177,2.215,9.330,2.182
a,84151,0.000,0.000,36.000,0.000,4.087,0.041,-0.222,-0.250,2.199,9.335,2.201
a,84155,0.000,0.000,36.000,0.000,4.043,0.087,0.099,0.009,2.212,9.315,2.198
a,84159,0.000,0.000,36.000,0.000,3.999,-0.070,-0.047,0.507,2.212,9.351,2.215
a,84164,0.000,0.000,36.000,0.000,4.087,0.082,-0.032,0.384,2.225,9.324,2.206
a,84168,0.000,0.000,36.000,0.000,4.087,0.189,0.121,0.491,2.215,9.340,2.185
a,84172,0.000,0.000,36.000,0.000,4.043,0.250,0.152,0.171,2.230,9.352,2.227
