HEADER,TIME_MS,SV_DRV,SV_STR,SV_STD,SWP_SG,SV_POS,GY_ROLL,GY_YAW,GY_PITCH,ACC_X,ACC_Y,ACC_Z
a,522949,0.000,0.000,36.000,0.000,1.978,-0.065,-0.128,-0.428,0.178,9.901,0.247
a,522953,0.000,0.000,36.000,0.000,2.021,-0.203,-0.158,1.206,0.180,9.871,0.254
a,522958,0.000,0.000,36.000,0.000,2.021,-0.157,-0.067,-0.214,0.164,9.872,0.244
a,522962,0.000,0.000,36.000,0.000,2.021,-0.050,-0.005,0.565,0.180,9.875,0.262
a,522965,0.000,0.000,36.000,0.000,2.065,0.011,-0.189,-0.107,0.204,9.884,0.239
a,522969,0.000,0.000,36.000,0.000,2.021,-0.157,-0.005,0.336,0.183,9.905,0.250
a,522973,0.000,0.000,36.000,0.000,2.021,0.057,-0.021,0.213,0.180,9.865,0.243
a,522978,0.000,0.000,36.000,0.000,2.021,-0.050,-0.296,-0.107,0.170,9.863,0.225
a,522982,0.000,0.000,36.000,0.000,2.065,0.103,-0.021,-0.504,0.174,9.886,0.259
a,522985,0.000,0.000,36.000,0.000,2.021,-0.050,-0.128,0.229,0.194,9.833,0.237
a,522990,0.000,0.000,36.000,0.000,2.021,-0.248,0.056,1.053,0.172,9.867,0.256
a,522993,0.000,0.000,36.000,0.000,1.978,0.118,0.040,-0.290,0.164,9.874,0.273
a,522997,0.000,0.000,36.000,0.000,1.978,0.042,0.422,-0.687,0.178,9.887,0.247
a,523001,0.000,0.000,36.000,0.000,1.978,0.042,0.040,1.282,0.170,9.868,0.237
a,523005,0.000,0.000,36.000,0.000,1.978,0.164,-0.112,0.656,0.172,9.899,0.236
a,523009,0.000,0.000,36.000,0.000,2.021,-0.050,-0.021,0.122,0.198,9.876,0.267
a,523013,0.000,0.000,36.000,0.000,1.978,0.148,-0.280,-0.611,0.157,9.863,0.267
a,523017,0.000,0.000,36.000,0.000,1.978,0.148,-0.067,0.946,0.170,9.917,0.262
a,523021,0.000,0.000,36.000,0.000,1.978,-0.157,-0.005,0.290,0.163,9.868,0.229
a,523025,0.000,0.000,36.000,0.000,1.978,0.057,-0.128,0.168,0.178,9.857,0.266
a,523029,0.000,0.000,36.000,0.000,2.021,-0.081,-0.128,0.962,0.165,9.896,0.236
a,523033,0.000,0.000,36.000,0.000,2.021,0.011,0.056,0.565,0.183,9.869,0.255
a,523038,0.000,0.000,36.000,0.000,2.021,0.057,0.330,-0.016,0.194,9.874,0.267
a,523041,0.000,0.000,36.000,0.000,1.978,-0.050,0.040,-0.061,0.189,9.887,0.257
a,523045,0.000,0.000,36.000,0.000,2.021,-0.050,-0.082,-0.794,0.170,9.876,0.249
a,523049,0.000,0.000,36.000,0.000,2.021,0.118,0.178,0.442,0.194,9.865,0.273
a,523053,0.000,0.000,36.000,0.000,1.978,0.164,-0.051,0.320,0.158,9.895,0.255
a,523057,0.000,0.000,36.000,0.000,2.021,-0.111,0.040,-0.214,0.168,9.872,0.254
a,523061,0.000,0.000,36.000,0.000,1.978,0.286,-0.235,0.290,0.183,9.877,0.249
a,523065,0.000,0.000,36.000,0.000,1.978,0.103,-0.128,-0.672,0.192,9.884,0.239
a,523069,0.000,0.000,36.000,0.000,1.978,0.225,-0.128,0.107,0.168,9.904,0.243
a,523073,0.000,0.000,36.000,0.000,2.021,0.011,-0.128,-0.321,0.152,9.907,0.247
a,523077,0.000,0.000,36.000,0.000,2.021,0.164,0.361,0.198,0.168,9.895,0.243
a,523081,0.000,0.000,36.000,0.000,2.021,-0.111,0.040,-0.321,0.165,9.870,0.250
a,523086,0.000,0.000,36.000,0.000,1.978,0.103,0.040,-1.481,0.205,9.859,0.248
a,523090,0.000,0.000,36.000,0.000,2.021,0.011,-0.128,0.229,0.223,9.867,0.244
a,523093,0.000,0.000,36.000,0.000,2.021,0.011,-0.067,0.122,0.188,9.865,0.263
a,523098,0.000,0.000,36.000,0.000,2.021,-0.050,-0.021,-0.382,0.192,9.864,0.239
a,523101,0.000,0.000,36.000,0.000,2.065,-0.157,-0.143,-0.916,0.178,9.876,0.243
a,523105,0.000,0.000,36.000,0.000,1.978,0.026,0.056,1.435,0.154,9.900,0.231
a,523109,0.000,0.000,36.000,0.000,2.021,-0.065,0.101,0.061,0.174,9.907,0.244
a,523114,0.000,0.000,36.000,0.000,2.021,-0.126,0.086,-0.489,0.178,9.901,0.259
a,523117,0.000,0.000,36.000,0.000,1.978,0.225,0.040,-0.229,0.164,9.858,0.259
a,523122,0.000,0.000,36.000,0.000,2.021,-0.035,0.208,0.885,0.160,9.878,0.278
a,523125,0.000,0.000,36.000,0.000,2.021,0.118,0.178,0.442,0.160,9.838,0.254
a,523129,0.000,0.000,36.000,0.000,2.021,-0.142,-0.082,0.137,0.178,9.872,0.259
a,523133,0.000,0.000,36.000,0.000,2.021,0.118,0.101,0.488,0.192,9.875,0.256
a,523137,0.000,0.000,36.000,0.000,1.934,-0.035,-0.112,1.923,0.164,9.906,0.242
a,523141,0.000,0.000,36.000,0.000,2.021,0.011,-0.021,0.076,0.198,9.894,0.232
a,523145,0.000,0.000,36.000,0.000,1.978,0.011,0.086,-0.214,0.180,9.878,0.259
a,523149,0.000,0.000,36.000,0.000,1.978,-0.157,0.269,0.381,0.194,9.892,0.253
a,523153,0.000,0.000,36.000,0.000,1.978,0.240,0.101,-0.458,0.189,9.846,0.215
a,523157,0.000,0.000,36.000,0.000,2.021,0.057,-0.051,0.275,0.152,9.880,0.266
a,523161,0.000,0.000,36.000,0.000,2.065,0.011,-0.067,-0.107,0.189,9.877,0.265
a,523165,0.000,0.000,36.000,0.000,1.978,-0.172,0.361,-0.672,0.164,9.887,0.256
a,523169,0.000,0.000,36.000,0.000,2.021,-0.050,-0.005,0.015,0.188,9.877,0.257
a,523173,0.000,0.000,36.000,0.000,1.978,0.011,-0.067,0.076,0.194,9.856,0.260
a,523177,0.000,0.000,36.000,0.000,2.065,0.026,-0.280,0.885,0.186,9.871,0.273
a,523182,0.000,0.000,36.000,0.000,1.934,-0.065,0.086,-0.428,0.172,9.883,0.260
a,523185,0.000,0.000,36.000,0.000,2.021,0.240,-0.021,0.824,0.194,9.877,0.260
a,523189,0.000,0.000,36.000,0.000,2.021,0.103,0.040,-0.443,0.163,9.863,0.249
a,523193,0.000,0.000,36.000,0.000,2.021,-0.096,-0.051,0.885,0.176,9.880,0.255
a,523198,0.000,0.000,36.000,0.000,2.021,0.057,-0.173,-0.229,0.186,9.858,0.244
a,523202,0.000,0.000,36.000,0.000,2.065,0.042,-0.021,-0.993,0.178,9.874,0.249
a,523206,0.000,0.000,36.000,0.000,2.373,0.057,0.162,0.549,0.192,9.875,0.247
a,523209,0.000,0.000,36.000,0.000,1.978,0.011,0.056,0.336,0.186,9.887,0.250
a,523213,0.000,0.000,36.000,0.000,2.021,-0.065,-0.067,-0.764,0.158,9.881,0.266
a,523217,0.000,0.000,36.000,0.000,2.021,0.103,0.040,-0.886,0.170,9.913,0.259
a,523221,0.000,0.000,36.000,0.000,2.021,-0.126,0.147,-0.550,0.174,9.887,0.265
a,523226,0.000,0.000,36.000,0.000,2.021,-0.218,0.162,0.336,0.178,9.886,0.237
a,523230,0.000,0.000,36.000,0.000,2.065,-0.065,0.040,-1.145,0.195,9.872,0.272
a,523233,0.000,0.000,36.000,0.000,2.021,-0.248,-0.173,0.992,0.152,9.852,0.273
a,523238,0.000,0.000,36.000,0.000,2.021,-0.096,0.010,0.992,0.181,9.834,0.261
a,523241,0.000,0.000,36.000,0.000,2.021,-0.111,-0.280,0.504,0.180,9.863,0.271
a,523245,0.000,0.000,36.000,0.000,2.021,-0.264,0.101,0.671,0.180,9.867,0.260
a,523249,0.000,0.000,36.000,0.000,1.978,0.057,-0.021,-0.183,0.198,9.899,0.265
a,523253,0.000,0.000,36.000,0.000,2.021,-0.157,0.040,0.076,0.165,9.899,0.259
a,523257,0.000,0.000,36.000,0.000,2.021,0.118,0.101,-0.122,0.168,9.888,0.260
a,523261,0.000,0.000,36.000,0.000,2.021,-0.172,-0.235,-0.550,0.183,9.889,0.227
a,523265,0.000,0.000,36.000,0.000,1.978,-0.050,0.193,0.122,0.158,9.893,0.249
a,523269,0.000,0.000,36.000,0.000,2.021,-0.050,0.101,-0.214,0.174,9.887,0.254
a,523273,0.000,0.000,36.000,0.000,2.021,-0.050,0.208,-0.168,0.174,9.865,0.269
a,523277,0.000,0.000,36.000,0.000,2.021,-0.065,-0.021,-1.298,0.198,9.887,0.256
a,523281,0.000,0.000,36.000,0.000,2.021,0.011,-0.021,0.122,0.168,9.861,0.279
a,523286,0.000,0.000,36.000,0.000,2.065,-0.004,-0.036,0.595,0.195,9.900,0.254
a,523289,0.000,0.000,36.000,0.000,2.065,-0.264,-0.005,0.778,0.157,9.865,0.238
a,523293,0.000,0.000,36.000,0.000,2.021,-0.218,-0.219,-0.382,0.170,9.902,0.256
a,523297,0.000,0.000,36.000,0.000,2.021,-0.065,0.040,-1.191,0.165,9.858,0.235
a,523301,0.000,0.000,36.000,0.000,1.978,0.057,0.040,-0.000,0.174,9.904,0.255
a,523305,0.000,0.000,36.000,0.000,2.021,-0.218,0.101,0.336,0.186,9.895,0.256
a,523309,0.000,0.000,36.000,0.000,2.065,0.072,0.086,0.565,0.188,9.857,0.250
a,523313,0.000,0.000,36.000,0.000,1.978,-0.111,-0.128,0.015,0.164,9.852,0.262
a,523317,0.000,0.000,36.000,0.000,1.978,0.011,0.040,-0.107,0.170,9.870,0.250
a,523321,0.000,0.000,36.000,0.000,2.065,0.042,0.040,-0.886,0.163,9.867,0.238
a,523325,0.000,0.000,36.000,0.000,2.021,0.271,0.101,0.381,0.180,9.872,0.268
a,523329,0.000,0.000,36.000,0.000,2.021,0.011,-0.082,-1.130,0.192,9.888,0.244
a,523334,0.000,0.000,36.000,0.000,2.021,-0.004,0.040,-1.680,0.194,9.898,0.263
a,523338,0.000,0.000,36.000,0.000,2.021,0.011,-0.067,0.122,0.174,9.905,0.248
a,523341,0.000,0.000,36.000,0.000,2.021,0.011,-0.143,-0.535,0.170,9.905,0.249
a,523345,0.000,0.000,36.000,0.000,2.021,-0.279,0.315,-0.947,0.174,9.914,0.244
a,523349,0.000,0.000,36.000,0.000,2.021,-0.233,0.315,-0.611,0.168,9.895,0.260
a,523353,0.000,0.000,36.000,0.000,2.021,0.026,-0.005,1.328,0.168,9.881,0.237
a,523358,0.000,0.000,36.000,0.000,2.021,0.164,-0.005,0.595,0.178,9.893,0.259
a,523362,0.000,0.000,36.000,0.000,2.065,0.057,0.162,-0.183,0.192,9.857,0.273
a,523365,0.000,0.000,36.000,0.000,2.021,-0.019,-0.036,-1.848,0.186,9.869,0.262
a,523369,0.000,0.000,36.000,0.000,2.065,0.316,0.193,-0.779,0.163,9.867,0.259
a,523373,0.000,0.000,36.000,0.000,1.978,-0.050,-0.051,0.336,0.174,9.880,0.237
a,523377,0.000,0.000,36.000,0.000,1.978,-0.111,0.040,-0.107,0.157,9.875,0.247
a,523382,0.000,0.000,36.000,0.000,1.978,-0.050,-0.128,-0.321,0.164,9.872,0.255
a,523386,0.000,0.000,36.000,0.000,2.021,-0.142,-0.082,-0.260,0.176,9.882,0.239
a,523389,0.000,0.000,36.000,0.000,1.978,-0.218,0.040,-0.214,0.180,9.859,0.254
a,523394,0.000,0.000,36.000,0.000,1.978,0.057,-0.128,-0.229,0.181,9.884,0.260
a,523397,0.000,0.000,36.000,0.000,1.978,0.026,0.162,0.992,0.183,9.838,0.254
a,523401,0.000,0.000,36.000,0.000,2.021,-0.050,-0.219,0.717,0.188,9.883,0.283
a,523405,0.000,0.000,36.000,0.000,2.021,0.011,0.010,0.717,0.174,9.881,0.238
a,523409,0.000,0.000,36.000,0.000,2.021,0.179,-0.189,0.290,0.158,9.871,0.260
a,523413,0.000,0.000,36.000,0.000,2.021,-0.004,0.040,-0.932,0.178,9.874,0.268
a,523417,0.000,0.000,36.000,0.000,1.978,-0.096,0.117,0.946,0.174,9.886,0.244
a,523421,0.000,0.000,36.000,0.000,2.021,-0.050,0.147,0.183,0.168,9.888,0.254
a,523425,0.000,0.000,36.000,0.000,2.021,0.148,-0.067,-0.672,0.183,9.899,0.247
a,523429,0.000,0.000,36.000,0.000,2.065,-0.218,0.101,0.183,0.211,9.865,0.254
a,523433,0.000,0.000,36.000,0.000,2.021,-0.004,0.147,-0.657,0.198,9.871,0.266
a,523437,0.000,0.000,36.000,0.000,1.978,-0.004,-0.128,-0.428,0.181,9.876,0.256
a,523442,0.000,0.000,36.000,0.000,2.021,-0.004,0.056,-0.764,0.195,9.880,0.226
a,523445,0.000,0.000,36.000,0.000,1.978,-0.096,-0.051,0.946,0.170,9.902,0.231
a,523449,0.000,0.000,36.000,0.000,2.021,0.057,-0.067,-0.397,0.192,9.875,0.244
a,523453,0.000,0.000,36.000,0.000,2.021,0.011,-0.005,0.717,0.189,9.880,0.263
a,523457,0.000,0.000,36.000,0.000,2.065,0.225,0.193,0.107,0.164,9.901,0.268
a,523461,0.000,0.000,36.000,0.000,2.021,0.057,-0.402,-0.336,0.172,9.859,0.255
a,523466,0.000,0.000,36.000,0.000,1.978,0.042,0.086,-0.565,0.189,9.882,0.250
a,523469,0.000,0.000,36.000,0.000,1.978,-0.096,0.162,1.099,0.189,9.877,0.256
a,523474,0.000,0.000,36.000,0.000,1.978,-0.035,0.193,0.580,0.186,9.877,0.272
a,523478,0.000,0.000,36.000,0.000,1.978,0.148,0.147,-0.611,0.134,9.886,0.247
a,523481,0.000,0.000,36.000,0.000,2.021,0.057,0.208,0.107,0.170,9.901,0.238
a,523485,0.000,0.000,36.000,0.000,1.978,-0.096,-0.112,1.328,0.172,9.881,0.232
a,523489,0.000,0.000,36.000,0.000,1.978,-0.096,0.101,1.817,0.158,9.875,0.244
a,523493,0.000,0.000,36.000,0.000,2.021,-0.050,0.132,-1.664,0.199,9.908,0.242
a,523498,0.000,0.000,36.000,0.000,2.021,0.057,-0.143,-0.764,0.174,9.890,0.255
a,523502,0.000,0.000,36.000,0.000,2.065,-0.157,-0.021,-0.382,0.164,9.902,0.273
a,523505,0.000,0.000,36.000,0.000,2.021,0.057,-0.005,0.809,0.181,9.916,0.244
a,523509,0.000,0.000,36.000,0.000,2.021,0.057,-0.051,-0.000,0.158,9.872,0.238
a,523513,0.000,0.000,36.000,0.000,2.021,-0.050,0.147,-0.168,0.165,9.874,0.250
a,523517,0.000,0.000,36.000,0.000,2.021,-0.050,-0.005,-0.214,0.165,9.896,0.263
a,523521,0.000,0.000,36.000,0.000,2.021,-0.111,0.056,0.565,0.174,9.867,0.242
a,523525,0.000,0.000,36.000,0.000,1.978,0.179,-0.143,0.183,0.160,9.894,0.239
a,523529,0.000,0.000,36.000,0.000,1.934,0.072,-0.082,-0.321,0.201,9.871,0.242
a,523533,0.000,0.000,36.000,0.000,2.021,0.057,-0.021,-0.000,0.158,9.874,0.247
a,523538,0.000,0.000,36.000,0.000,2.065,0.057,-0.036,0.595,0.170,9.872,0.242
a,523541,0.000,0.000,36.000,0.000,2.065,-0.065,0.086,-0.871,0.158,9.887,0.272
a,523545,0.000,0.000,36.000,0.000,2.021,0.118,-0.235,0.168,0.168,9.898,0.260
a,523550,0.000,0.000,36.000,0.000,2.021,0.057,-0.021,-0.290,0.195,9.865,0.277
a,523553,0.000,0.000,36.000,0.000,1.978,0.164,-0.051,0.213,0.176,9.894,0.256
a,523557,0.000,0.000,36.000,0.000,1.978,-0.157,0.132,-1.558,0.165,9.894,0.278
a,523561,0.000,0.000,36.000,0.000,2.021,-0.218,0.086,0.183,0.207,9.872,0.238
a,523565,0.000,0.000,36.000,0.000,2.021,0.042,-0.189,-1.374,0.180,9.877,0.233
a,523569,0.000,0.000,36.000,0.000,1.978,0.118,-0.128,-0.229,0.168,9.906,0.272
a,523573,0.000,0.000,36.000,0.000,1.978,0.057,-0.097,0.381,0.170,9.886,0.244
a,523577,0.000,0.000,36.000,0.000,2.021,0.103,0.086,-0.672,0.176,9.910,0.237
a,523581,0.000,0.000,36.000,0.000,1.978,-0.004,-0.235,-0.977,0.194,9.881,0.250
a,523585,0.000,0.000,36.000,0.000,1.978,-0.126,-0.402,-0.764,0.195,9.876,0.236
a,523589,0.000,0.000,36.000,0.000,2.021,-0.248,-0.005,0.946,0.178,9.843,0.260
a,523593,0.000,0.000,36.000,0.000,2.021,0.026,-0.067,0.305,0.198,9.890,0.239
a,523598,0.000,0.000,36.000,0.000,2.021,-0.126,-0.128,-0.703,0.170,9.884,0.249
a,523601,0.000,0.000,36.000,0.000,2.021,0.026,0.147,0.626,0.168,9.868,0.285
a,523605,0.000,0.000,36.000,0.000,2.021,0.011,-0.021,0.229,0.188,9.893,0.266
a,523609,0.000,0.000,36.000,0.000,1.978,-0.172,-0.128,-0.703,0.178,9.895,0.256
a,523613,0.000,0.000,36.000,0.000,2.021,0.118,-0.112,0.656,0.195,9.892,0.241
a,523617,0.000,0.000,36.000,0.000,1.978,-0.203,0.071,-0.412,0.174,9.869,0.237
a,523621,0.000,0.000,36.000,0.000,1.978,-0.157,0.086,-0.214,0.180,9.892,0.262
a,523625,0.000,0.000,36.000,0.000,1.934,-0.233,0.254,-0.825,0.201,9.896,0.265
a,523630,0.000,0.000,36.000,0.000,2.065,-0.065,-0.021,-1.191,0.186,9.849,0.226
a,523634,0.000,0.000,36.000,0.000,1.934,-0.248,0.269,1.358,0.186,9.877,0.268
a,523637,0.000,0.000,36.000,0.000,1.978,-0.065,-0.021,-0.932,0.192,9.871,0.248
a,523641,0.000,0.000,36.000,0.000,1.978,-0.065,-0.067,-0.489,0.172,9.874,0.259
a,523645,0.000,0.000,36.000,0.000,1.978,0.011,0.544,0.488,0.181,9.846,0.250
a,523649,0.000,0.000,36.000,0.000,2.021,0.179,0.101,1.954,0.183,9.890,0.266
a,523654,0.000,0.000,36.000,0.000,2.021,0.057,0.040,0.061,0.157,9.852,0.273
a,523658,0.000,0.000,36.000,0.000,1.978,0.042,-0.128,-0.443,0.170,9.849,0.272
a,523661,0.000,0.000,36.000,0.000,2.021,0.042,-0.067,-1.435,0.183,9.877,0.253
a,523665,0.000,0.000,36.000,0.000,1.978,0.103,0.086,-1.588,0.165,9.859,0.266
a,523669,0.000,0.000,36.000,0.000,2.021,-0.111,-0.128,0.015,0.198,9.884,0.253
a,523674,0.000,0.000,36.000,0.000,1.978,-0.096,0.132,0.137,0.183,9.898,0.220
a,523678,0.000,0.000,36.000,0.000,2.021,0.148,0.040,-0.886,0.214,9.884,0.266
a,523682,0.000,0.000,36.000,0.000,2.021,-0.231,-0.241,-0.957,0.188,9.869,0.232
a,523686,0.000,0.000,36.000,0.000,2.065,-0.216,0.094,0.417,0.168,9.863,0.254
a,523689,0.000,0.000,36.000,0.000,1.978,-0.063,0.186,-0.637,0.170,9.874,0.254
a,523693,0.000,0.000,36.000,0.000,2.021,0.013,0.033,0.096,0.220,9.886,0.277
a,523697,0.000,0.000,36.000,0.000,2.021,-0.124,-0.074,-0.469,0.168,9.865,0.235
a,523701,0.000,0.000,36.000,0.000,2.065,-0.155,-0.012,0.417,0.168,9.865,0.291
a,523705,0.000,0.000,36.000,0.000,1.978,0.059,-0.180,0.783,0.188,9.880,0.239
a,523709,0.000,0.000,36.000,0.000,2.065,0.013,-0.180,0.142,0.150,9.863,0.250
a,523713,0.000,0.000,36.000,0.000,2.021,0.166,-0.074,0.127,0.172,9.859,0.241
a,523717,0.000,0.000,36.000,0.000,2.021,-0.170,-0.241,-0.637,0.186,9.883,0.241
a,523721,0.000,0.000,36.000,0.000,1.978,0.120,0.033,0.081,0.174,9.872,0.241
a,523725,0.000,0.000,36.000,0.000,2.065,0.013,0.079,-0.255,0.181,9.875,0.250
a,523729,0.000,0.000,36.000,0.000,1.978,0.120,0.140,0.081,0.186,9.884,0.255
a,523733,0.000,0.000,36.000,0.000,2.065,-0.170,0.186,-0.957,0.170,9.874,0.263
a,523738,0.000,0.000,36.000,0.000,1.978,0.120,0.278,0.707,0.178,9.883,0.257
a,523741,0.000,0.000,36.000,0.000,2.021,-0.063,0.049,-0.469,0.178,9.880,0.267
a,523745,0.000,0.000,36.000,0.000,2.021,0.166,-0.028,-0.316,0.164,9.861,0.289
a,523749,0.000,0.000,36.000,0.000,2.021,-0.048,0.155,0.692,0.172,9.874,0.272
a,523753,0.000,0.000,36.000,0.000,2.021,-0.216,-0.058,-0.148,0.188,9.858,0.260
a,523757,0.000,0.000,36.000,0.000,2.065,0.166,-0.135,0.188,0.181,9.888,0.266
a,523761,0.000,0.000,36.000,0.000,1.978,0.273,-0.303,-0.057,0.201,9.881,0.255
a,523765,0.000,0.000,36.000,0.000,2.021,0.013,-0.012,0.142,0.152,9.871,0.242
a,523769,0.000,0.000,36.000,0.000,1.978,0.151,-0.028,-0.652,0.188,9.890,0.265
a,523773,0.000,0.000,36.000,0.000,1.978,-0.261,0.049,0.737,0.172,9.869,0.229
a,523777,0.000,0.000,36.000,0.000,1.978,0.029,0.155,0.905,0.170,9.880,0.260
a,523782,0.000,0.000,36.000,0.000,2.065,0.166,-0.058,0.462,0.163,9.846,0.244
a,523786,0.000,0.000,36.000,0.000,1.978,-0.048,0.247,0.188,0.188,9.872,0.254
a,523790,0.000,0.000,36.000,0.000,2.065,-0.124,0.033,-1.125,0.192,9.871,0.266
a,523793,0.000,0.000,36.000,0.000,2.065,-0.124,0.308,-0.698,0.164,9.870,0.265
a,523797,0.000,0.000,36.000,0.000,2.021,-0.216,-0.028,0.249,0.165,9.844,0.253
a,523801,0.000,0.000,36.000,0.000,2.021,-0.109,-0.058,0.249,0.172,9.880,0.235
a,523805,0.000,0.000,36.000,0.000,2.021,-0.109,-0.272,0.356,0.192,9.874,0.263
a,523810,0.000,0.000,36.000,0.000,1.978,-0.384,0.033,-0.912,0.183,9.884,0.243
a,523814,0.000,0.000,36.000,0.000,2.065,0.120,-0.196,-0.057,0.183,9.887,0.239
a,523818,0.000,0.000,36.000,0.000,1.978,-0.124,-0.196,-0.912,0.160,9.869,0.244
a,523821,0.000,0.000,36.000,0.000,1.978,-0.093,-0.043,0.905,0.163,9.843,0.256
a,523825,0.000,0.000,36.000,0.000,1.978,0.166,0.079,-0.270,0.194,9.911,0.261
a,523829,0.000,0.000,36.000,0.000,2.021,0.349,0.369,1.043,0.164,9.878,0.265
a,523833,0.000,0.000,36.000,0.000,2.021,-0.170,0.262,-1.293,0.176,9.883,0.290
a,523837,0.000,0.000,36.000,0.000,1.978,0.181,-0.196,0.844,0.186,9.887,0.265
a,523841,0.000,0.000,36.000,0.000,1.934,0.013,-0.058,-0.148,0.160,9.829,0.253
a,523845,0.000,0.000,36.000,0.000,2.021,0.044,0.140,-0.973,0.183,9.892,0.253
a,523849,0.000,0.000,36.000,0.000,1.978,0.013,-0.074,-0.148,0.165,9.862,0.253
a,523853,0.000,0.000,36.000,0.000,2.021,0.013,-0.135,0.142,0.214,9.883,0.259
a,523857,0.000,0.000,36.000,0.000,1.978,0.029,-0.089,-2.011,0.181,9.890,0.250
a,523861,0.000,0.000,36.000,0.000,1.978,-0.032,0.064,1.012,0.164,9.851,0.261
a,523865,0.000,0.000,36.000,0.000,2.021,0.059,-0.241,0.188,0.192,9.861,0.250
a,523869,0.000,0.000,36.000,0.000,2.021,0.013,-0.135,0.096,0.176,9.877,0.256
a,523873,0.000,0.000,36.000,0.000,2.021,-0.093,-0.012,1.501,0.176,9.847,0.253
a,523877,0.000,0.000,36.000,0.000,2.021,0.059,0.201,0.829,0.188,9.889,0.236
a,523881,0.000,0.000,36.000,0.000,1.978,0.151,-0.241,-0.698,0.194,9.881,0.273
a,523886,0.000,0.000,36.000,0.000,2.021,0.059,0.003,0.829,0.160,9.865,0.250
a,523890,0.000,0.000,36.000,0.000,2.021,-0.002,-0.058,-0.530,0.163,9.858,0.273
a,523893,0.000,0.000,36.000,0.000,2.021,-0.261,0.171,0.630,0.189,9.883,0.238
a,523897,0.000,0.000,36.000,0.000,2.021,0.059,0.079,-0.163,0.158,9.861,0.243
a,523901,0.000,0.000,36.000,0.000,2.021,0.212,-0.303,-0.591,0.186,9.905,0.261
a,523906,0.000,0.000,36.000,0.000,2.065,-0.170,0.033,-1.400,0.165,9.877,0.250
a,523910,0.000,0.000,36.000,0.000,2.021,0.105,0.201,-0.652,0.188,9.890,0.226
a,523913,0.000,0.000,36.000,0.000,2.065,0.044,0.171,-0.316,0.201,9.893,0.229
a,523917,0.000,0.000,36.000,0.000,1.978,0.105,0.033,-0.484,0.176,9.892,0.285
a,523921,0.000,0.000,36.000,0.000,1.978,0.013,0.186,0.035,0.163,9.876,0.266
a,523925,0.000,0.000,36.000,0.000,1.978,0.105,0.094,-0.805,0.181,9.883,0.250
a,523929,0.000,0.000,36.000,0.000,2.109,-0.155,0.033,-0.087,0.183,9.876,0.247
a,523934,0.000,0.000,36.000,0.000,1.978,0.059,-0.287,0.401,0.164,9.876,0.250
a,523938,0.000,0.000,36.000,0.000,2.021,-0.124,0.033,-0.683,0.181,9.850,0.242
a,523941,0.000,0.000,36.000,0.000,1.978,0.136,-0.012,1.440,0.165,9.874,0.253
a,523946,0.000,0.000,36.000,0.000,2.021,-0.246,0.033,0.493,0.199,9.868,0.266
a,523949,0.000,0.000,36.000,0.000,1.978,0.044,-0.287,-0.652,0.165,9.872,0.244
a,523953,0.000,0.000,36.000,0.000,2.021,-0.048,-0.196,-0.194,0.188,9.851,0.250
a,523957,0.000,0.000,36.000,0.000,1.978,-0.063,-0.074,-0.637,0.183,9.862,0.243
a,523961,0.000,0.000,36.000,0.000,1.978,-0.155,0.186,0.203,0.183,9.862,0.231
a,523965,0.000,0.000,36.000,0.000,2.021,-0.048,0.186,0.142,0.213,9.851,0.278
a,523969,0.000,0.000,36.000,0.000,1.978,-0.063,0.064,0.569,0.194,9.841,0.272
a,523973,0.000,0.000,36.000,0.000,1.978,-0.246,0.094,1.455,0.165,9.869,0.229
a,523977,0.000,0.000,36.000,0.000,2.065,-0.063,-0.104,0.829,0.199,9.871,0.269
a,523981,0.000,0.000,36.000,0.000,1.978,0.059,0.140,-0.377,0.183,9.850,0.239
a,523985,0.000,0.000,36.000,0.000,2.021,0.105,0.033,-1.141,0.178,9.865,0.253
a,523989,0.000,0.000,36.000,0.000,1.978,0.044,-0.028,-0.866,0.180,9.874,0.256
a,523993,0.000,0.000,36.000,0.000,1.978,0.181,-0.196,0.417,0.180,9.865,0.266
a,523997,0.000,0.000,36.000,0.000,2.021,0.166,-0.058,0.295,0.160,9.888,0.256
a,524001,0.000,0.000,36.000,0.000,1.934,-0.048,-0.074,-0.041,0.189,9.905,0.256
a,524006,0.000,0.000,36.000,0.000,1.978,0.288,-0.089,-0.194,0.154,9.876,0.242
a,524009,0.000,0.000,36.000,0.000,1.978,-0.231,0.049,-0.637,0.194,9.871,0.241
a,524013,0.000,0.000,36.000,0.000,2.021,-0.093,0.201,1.714,0.176,9.877,0.254
a,524017,0.000,0.000,36.000,0.000,2.021,0.136,0.094,1.440,0.186,9.859,0.266
a,524021,0.000,0.000,36.000,0.000,2.065,-0.063,-0.074,-0.637,0.172,9.857,0.271
a,524025,0.000,0.000,36.000,0.000,1.978,0.120,0.110,0.615,0.180,9.847,0.269
a,524030,0.000,0.000,36.000,0.000,2.021,-0.109,0.247,-0.209,0.157,9.850,0.243
a,524034,0.000,0.000,36.000,0.000,1.978,0.059,-0.058,-0.057,0.165,9.881,0.263
a,524037,0.000,0.000,36.000,0.000,2.021,0.029,-0.303,0.264,0.188,9.883,0.247
a,524041,0.000,0.000,36.000,0.000,2.021,0.059,0.186,-0.209,0.172,9.886,0.241
a,524045,0.000,0.000,36.000,0.000,2.021,0.013,0.247,0.233,0.195,9.898,0.257
a,524049,0.000,0.000,36.000,0.000,2.021,0.013,-0.058,0.585,0.148,9.878,0.271
a,524054,0.000,0.000,36.000,0.000,1.934,-0.093,0.094,1.775,0.178,9.871,0.261
a,524058,0.000,0.000,36.000,0.000,1.978,-0.048,-0.012,0.417,0.178,9.883,0.238
a,524061,0.000,0.000,36.000,0.000,2.021,0.013,-0.196,0.203,0.170,9.887,0.232
a,524065,0.000,0.000,36.000,0.000,1.978,-0.063,-0.012,-0.683,0.181,9.865,0.261
a,524069,0.000,0.000,36.000,0.000,2.021,-0.139,0.079,0.814,0.204,9.882,0.255
a,524073,0.000,0.000,36.000,0.000,1.978,0.166,-0.058,0.295,0.163,9.870,0.259
a,524077,0.000,0.000,36.000,0.000,1.978,0.166,0.049,0.676,0.172,9.862,0.256
a,524082,0.000,0.000,36.000,0.000,1.978,0.059,-0.104,0.829,0.188,9.865,0.250
a,524086,0.000,0.000,36.000,0.000,1.978,-0.109,-0.241,-0.255,0.183,9.880,0.253
a,524089,0.000,0.000,36.000,0.000,1.978,-0.093,-0.058,1.073,0.180,9.877,0.241
a,524094,0.000,0.000,36.000,0.000,1.890,0.013,-0.012,-0.148,0.192,9.887,0.253
a,524097,0.000,0.000,36.000,0.000,1.934,0.029,-0.074,0.600,0.181,9.876,0.256
a,524101,0.000,0.000,36.000,0.000,1.978,-0.109,-0.119,-0.255,0.165,9.901,0.272
a,524105,0.000,0.000,36.000,0.000,1.978,0.059,0.125,-0.789,0.168,9.858,0.247
a,524109,0.000,0.000,36.000,0.000,1.934,0.044,-0.180,-0.545,0.158,9.888,0.244
a,524113,0.000,0.000,36.000,0.000,1.934,0.166,-0.028,-0.102,0.199,9.869,0.250
a,524117,0.000,0.000,36.000,0.000,2.021,0.059,-0.058,0.295,0.170,9.880,0.257
a,524121,0.000,0.000,36.000,0.000,2.065,0.120,-0.241,0.188,0.163,9.872,0.262
a,524125,0.000,0.000,36.000,0.000,1.978,0.212,-0.241,-0.866,0.163,9.889,0.237
a,524129,0.000,0.000,36.000,0.000,2.021,0.120,0.033,-0.163,0.186,9.887,0.256
a,524133,0.000,0.000,36.000,0.000,1.978,0.105,-0.028,-0.759,0.142,9.867,0.244
a,524137,0.000,0.000,36.000,0.000,2.021,-0.093,0.064,1.073,0.181,9.858,0.248
a,524141,0.000,0.000,36.000,0.000,2.021,-0.048,0.049,0.585,0.163,9.874,0.266
a,524145,0.000,0.000,36.000,0.000,1.978,0.044,0.140,-0.805,0.178,9.876,0.239
a,524150,0.000,0.000,36.000,0.000,2.021,0.013,0.003,0.478,0.165,9.863,0.232
a,524153,0.000,0.000,36.000,0.000,1.978,0.319,0.079,-0.652,0.183,9.878,0.266
a,524157,0.000,0.000,36.000,0.000,1.934,0.029,0.018,0.218,0.172,9.908,0.265
a,524161,0.000,0.000,36.000,0.000,1.978,0.013,0.033,-0.041,0.160,9.875,0.268
a,524165,0.000,0.000,36.000,0.000,2.021,-0.155,-0.303,-0.087,0.172,9.884,0.260
a,524169,0.000,0.000,36.000,0.000,2.021,-0.063,-0.028,-1.400,0.157,9.856,0.247
a,524174,0.000,0.000,36.000,0.000,1.934,-0.002,-0.012,-0.683,0.180,9.844,0.269
a,524177,0.000,0.000,36.000,0.000,2.021,0.059,-0.104,0.676,0.163,9.901,0.267
a,524181,0.000,0.000,36.000,0.000,1.978,0.074,0.201,1.058,0.174,9.856,0.255
a,524185,0.000,0.000,36.000,0.000,1.978,0.105,0.033,-0.927,0.211,9.886,0.261
a,524189,0.000,0.000,36.000,0.000,2.021,-0.109,0.446,0.615,0.176,9.872,0.238
a,524194,0.000,0.000,36.000,0.000,2.021,0.059,-0.135,-0.209,0.168,9.874,0.229
a,524198,0.000,0.000,36.000,0.000,2.021,0.166,0.079,0.081,0.172,9.883,0.242
a,524201,0.000,0.000,36.000,0.000,2.021,0.013,-0.226,0.310,0.183,9.867,0.256
a,524205,0.000,0.000,36.000,0.000,1.978,0.013,-0.012,0.844,0.160,9.870,0.253
a,524209,0.000,0.000,36.000,0.000,1.978,-0.170,-0.135,-0.789,0.178,9.884,0.262
a,524213,0.000,0.000,36.000,0.000,2.021,-0.124,0.033,-1.232,0.172,9.874,0.253
a,524217,0.000,0.000,36.000,0.000,1.978,-0.032,-0.012,1.073,0.154,9.886,0.239
a,524221,0.000,0.000,36.000,0.000,1.978,-0.155,-0.119,0.798,0.188,9.872,0.272
a,524225,0.000,0.000,36.000,0.000,1.934,0.059,-0.135,-0.377,0.178,9.904,0.243
a,524229,0.000,0.000,36.000,0.000,1.978,-0.048,0.186,-0.301,0.192,9.876,0.254
a,524233,0.000,0.000,36.000,0.000,1.890,-0.063,-0.028,-0.957,0.178,9.910,0.265
a,524238,0.000,0.000,36.000,0.000,1.978,-0.002,-0.028,-0.530,0.158,9.862,0.241
a,524241,0.000,0.000,36.000,0.000,1.978,0.059,0.094,0.295,0.170,9.911,0.255
a,524245,0.000,0.000,36.000,0.000,2.021,-0.093,-0.028,0.432,0.180,9.876,0.253
a,524250,0.000,0.000,36.000,0.000,2.065,-0.002,0.186,-0.637,0.174,9.863,0.253
a,524253,0.000,0.000,36.000,0.000,2.021,-0.109,-0.028,-0.255,0.160,9.887,0.253
a,524257,0.000,0.000,36.000,0.000,2.021,0.044,0.079,-0.591,0.178,9.889,0.255
a,524261,0.000,0.000,36.000,0.000,2.021,-0.170,0.033,-0.408,0.150,9.896,0.257
a,524265,0.000,0.000,36.000,0.000,2.021,-0.063,0.186,-0.469,0.198,9.898,0.271
a,524269,0.000,0.000,36.000,0.000,2.065,0.166,-0.089,-0.637,0.195,9.882,0.266
a,524273,0.000,0.000,36.000,0.000,1.978,0.120,0.049,0.783,0.165,9.883,0.254
a,524277,0.000,0.000,36.000,0.000,1.978,-0.109,0.094,0.417,0.176,9.895,0.237
a,524281,0.000,0.000,36.000,0.000,1.978,-0.109,0.033,-0.041,0.178,9.887,0.231
a,524285,0.000,0.000,36.000,0.000,1.978,-0.048,-0.074,-0.255,0.160,9.875,0.253
a,524289,0.000,0.000,36.000,0.000,2.021,0.013,-0.058,0.356,0.164,9.883,0.262
a,524293,0.000,0.000,36.000,0.000,2.021,-0.048,-0.074,-0.041,0.181,9.855,0.233
a,524297,0.000,0.000,36.000,0.000,1.978,-0.109,0.262,0.783,0.164,9.870,0.239
a,524302,0.000,0.000,36.000,0.000,1.978,-0.139,0.155,0.905,0.165,9.881,0.256
a,524305,0.000,0.000,36.000,0.000,2.021,0.059,0.186,-0.163,0.199,9.875,0.265
a,524309,0.000,0.000,36.000,0.000,2.021,0.059,-0.119,-0.270,0.165,9.886,0.257
a,524313,0.000,0.000,36.000,0.000,1.978,0.227,-0.074,-0.209,0.157,9.882,0.256
a,524317,0.000,0.000,36.000,0.000,2.021,-0.216,-0.180,0.478,0.176,9.898,0.250
a,524321,0.000,0.000,36.000,0.000,1.978,0.029,-0.058,1.012,0.189,9.881,0.261
a,524325,0.000,0.000,36.000,0.000,1.802,0.120,-0.241,0.233,0.194,9.871,0.254
a,524329,0.000,0.000,36.000,0.000,1.978,-0.048,-0.104,0.417,0.174,9.886,0.272
a,524334,0.000,0.000,36.000,0.000,2.021,0.044,0.033,-0.423,0.163,9.892,0.244
a,524337,0.000,0.000,36.000,0.000,2.021,-0.200,-0.119,1.012,0.181,9.861,0.256
a,524341,0.000,0.000,36.000,0.000,1.978,0.166,0.033,-0.163,0.172,9.890,0.250
a,524345,0.000,0.000,36.000,0.000,2.021,-0.002,-0.074,-0.576,0.160,9.849,0.257
a,524349,0.000,0.000,36.000,0.000,1.978,-0.246,0.049,-0.698,0.174,9.865,0.257
a,524354,0.000,0.000,36.000,0.000,1.978,0.074,-0.211,-0.041,0.165,9.859,0.262
a,524358,0.000,0.000,36.000,0.000,2.065,-0.231,0.049,-0.408,0.188,9.881,0.244
a,524361,0.000,0.000,36.000,0.000,2.021,0.044,0.033,-0.652,0.188,9.887,0.260
a,524365,0.000,0.000,36.000,0.000,2.021,0.013,0.140,0.203,0.170,9.861,0.272
a,524369,0.000,0.000,36.000,0.000,2.021,0.059,0.049,0.569,0.181,9.884,0.249
a,524373,0.000,0.000,36.000,0.000,1.978,0.059,-0.135,-0.377,0.192,9.880,0.253
a,524377,0.000,0.000,36.000,0.000,1.934,-0.063,-0.058,-0.530,0.186,9.867,0.281
a,524381,0.000,0.000,36.000,0.000,2.021,0.059,-0.333,0.462,0.158,9.895,0.243
a,524386,0.000,0.000,36.000,0.000,1.978,-0.216,-0.196,0.203,0.164,9.872,0.266
a,524389,0.000,0.000,36.000,0.000,1.978,0.044,-0.180,-0.698,0.180,9.872,0.277
a,524394,0.000,0.000,36.000,0.000,2.021,-0.155,0.033,-0.087,0.165,9.883,0.268
a,524397,0.000,0.000,36.000,0.000,2.021,0.044,0.155,-0.423,0.181,9.859,0.237
a,524401,0.000,0.000,36.000,0.000,2.021,-0.185,0.018,-1.828,0.188,9.847,0.255
a,524405,0.000,0.000,36.000,0.000,2.021,-0.048,0.018,-0.896,0.176,9.853,0.242
a,524409,0.000,0.000,36.000,0.000,2.021,0.059,-0.196,0.188,0.174,9.911,0.256
a,524413,0.000,0.000,36.000,0.000,2.021,0.013,0.033,-0.301,0.158,9.872,0.233
a,524417,0.000,0.000,36.000,0.000,1.978,0.212,0.140,-0.866,0.180,9.906,0.257
a,524421,0.000,0.000,36.000,0.000,2.021,0.120,-0.058,0.462,0.186,9.904,0.250
a,524425,0.000,0.000,36.000,0.000,1.934,-0.002,-0.074,-1.125,0.189,9.870,0.247
a,524429,0.000,0.000,36.000,0.000,2.021,-0.139,0.262,1.211,0.172,9.884,0.260
a,524433,0.000,0.000,36.000,0.000,1.978,0.136,0.049,1.058,0.183,9.887,0.275
a,524437,0.000,0.000,36.000,0.000,1.978,-0.170,-0.135,-0.744,0.164,9.870,0.249
a,524441,0.000,0.000,36.000,0.000,1.978,-0.093,0.155,0.966,0.160,9.856,0.279
a,524445,0.000,0.000,36.000,0.000,1.978,-0.048,-0.135,-0.301,0.201,9.864,0.250
a,524450,0.000,0.000,36.000,0.000,2.021,0.334,0.094,0.295,0.189,9.886,0.244
a,524453,0.000,0.000,36.000,0.000,1.978,0.013,-0.196,-0.255,0.192,9.894,0.269
a,524457,0.000,0.000,36.000,0.000,1.978,0.059,0.079,-0.270,0.148,9.892,0.235
a,524461,0.000,0.000,36.000,0.000,2.021,-0.048,-0.074,0.096,0.178,9.889,0.266
a,524465,0.000,0.000,36.000,0.000,1.978,0.029,-0.058,0.905,0.181,9.888,0.267
a,524469,0.000,0.000,36.000,0.000,1.934,0.059,0.049,0.340,0.186,9.876,0.248
a,524473,0.000,0.000,36.000,0.000,1.978,-0.002,0.033,-0.744,0.157,9.887,0.242
a,524477,0.000,0.000,36.000,0.000,1.978,-0.048,-0.119,0.310,0.178,9.880,0.268
a,524481,0.000,0.000,36.000,0.000,2.021,-0.109,-0.012,0.630,0.180,9.855,0.249
a,524486,0.000,0.000,36.000,0.000,1.978,-0.155,0.049,0.737,0.192,9.910,0.265
a,524490,0.000,0.000,36.000,0.000,1.978,-0.002,-0.074,-0.957,0.160,9.874,0.256
a,524493,0.000,0.000,36.000,0.000,1.978,-0.155,0.155,0.035,0.168,9.851,0.279
a,524497,0.000,0.000,36.000,0.000,1.978,0.059,0.064,0.722,0.186,9.872,0.231
a,524501,0.000,0.000,36.000,0.000,1.978,0.044,-0.074,-0.805,0.176,9.881,0.241
a,524505,0.000,0.000,36.000,0.000,1.978,-0.155,0.354,0.081,0.160,9.892,0.242
a,524510,0.000,0.000,36.000,0.000,2.021,-0.109,0.186,0.142,0.176,9.881,0.263
a,524514,0.000,0.000,36.000,0.000,2.021,-0.063,-0.028,-0.469,0.186,9.855,0.225
a,524518,0.000,0.000,36.000,0.000,2.021,-0.032,-0.012,1.287,0.164,9.892,0.229
a,524521,0.000,0.000,36.000,0.000,2.021,-0.170,-0.058,-0.576,0.183,9.877,0.257
a,524526,0.000,0.000,36.000,0.000,1.978,-0.048,0.033,-0.148,0.178,9.887,0.247
a,524530,0.000,0.000,36.000,0.000,2.021,-0.109,0.079,0.203,0.180,9.876,0.256
a,524534,0.000,0.000,36.000,0.000,1.978,0.166,0.323,0.386,0.186,9.861,0.285
a,524538,0.000,0.000,36.000,0.000,1.978,-0.048,-0.028,-0.087,0.189,9.877,0.257
a,524541,0.000,0.000,36.000,0.000,2.021,0.059,0.079,-0.209,0.178,9.888,0.263
a,524545,0.000,0.000,36.000,0.000,2.373,-0.032,0.171,1.180,0.165,9.877,0.272
a,524549,0.000,0.000,36.000,0.000,2.021,-0.231,-0.241,-0.912,0.176,9.908,0.242
a,524553,0.000,0.000,36.000,0.000,1.978,0.227,-0.058,0.295,0.188,9.888,0.238
a,524557,0.000,0.000,36.000,0.000,2.021,-0.216,0.033,0.203,0.180,9.849,0.242
a,524561,0.000,0.000,36.000,0.000,2.065,0.120,0.140,-0.102,0.195,9.882,0.244
a,524565,0.000,0.000,36.000,0.000,2.021,0.166,-0.058,-0.102,0.181,9.886,0.247
a,524569,0.000,0.000,36.000,0.000,2.021,0.136,-0.257,-0.255,0.192,9.876,0.255
a,524573,0.000,0.000,36.000,0.000,1.978,-0.155,-0.058,0.478,0.178,9.907,0.242
a,524577,0.000,0.000,36.000,0.000,1.978,-0.109,-0.074,0.035,0.192,9.872,0.250
a,524581,0.000,0.000,36.000,0.000,1.978,-0.002,-0.012,-0.637,0.204,9.851,0.253
a,524586,0.000,0.000,36.000,0.000,1.934,0.105,-0.028,-0.484,0.170,9.874,0.247
a,524589,0.000,0.000,36.000,0.000,2.065,0.044,-0.196,-0.866,0.181,9.874,0.248
a,524593,0.000,0.000,36.000,0.000,1.978,-0.048,-0.119,0.630,0.168,9.859,0.267
a,524597,0.000,0.000,36.000,0.000,1.978,-0.063,0.079,-0.530,0.181,9.872,0.272
a,524601,0.000,0.000,36.000,0.000,1.978,0.120,-0.012,0.676,0.174,9.910,0.226
a,524605,0.000,0.000,36.000,0.000,2.021,0.151,-0.028,-1.629,0.164,9.896,0.266
a,524609,0.000,0.000,36.000,0.000,2.021,0.059,-0.074,0.020,0.183,9.902,0.247
a,524613,0.000,0.000,36.000,0.000,2.021,0.074,0.155,1.058,0.188,9.861,0.262
a,524617,0.000,0.000,36.000,0.000,1.934,-0.048,-0.028,-0.148,0.163,9.834,0.275
a,524621,0.000,0.000,36.000,0.000,1.978,0.120,0.155,0.783,0.189,9.876,0.242
a,524626,0.000,0.000,36.000,0.000,2.021,-0.155,0.323,0.722,0.180,9.880,0.273
a,524629,0.000,0.000,36.000,0.000,2.021,0.151,0.140,-0.866,0.194,9.877,0.253
a,524634,0.000,0.000,36.000,0.000,1.978,-0.216,-0.012,0.417,0.192,9.868,0.249
a,524637,0.000,0.000,36.000,0.000,2.065,0.059,0.079,0.020,0.192,9.853,0.255
a,524641,0.000,0.000,36.000,0.000,1.978,0.105,0.033,-0.545,0.172,9.892,0.263
a,524646,0.000,0.000,36.000,0.000,2.021,0.212,0.033,-0.698,0.186,9.870,0.247
a,524650,0.000,0.000,36.000,0.000,2.021,-0.246,0.049,0.905,0.178,9.895,0.265
a,524654,0.000,0.000,36.000,0.000,2.021,0.059,0.033,0.127,0.183,9.890,0.266
a,524657,0.000,0.000,36.000,0.000,2.021,0.029,0.094,1.226,0.205,9.875,0.243
a,524661,0.000,0.000,36.000,0.000,1.934,-0.048,-0.028,0.035,0.172,9.883,0.217
a,524665,0.000,0.000,36.000,0.000,2.021,0.059,-0.028,0.081,0.183,9.883,0.247
a,524669,0.000,0.000,36.000,0.000,2.021,-0.170,-0.226,-0.912,0.164,9.887,0.260
a,524673,0.000,0.000,36.000,0.000,2.021,0.059,0.079,-0.316,0.174,9.902,0.244
a,524677,0.000,0.000,36.000,0.000,1.934,0.013,0.018,-0.454,0.181,9.853,0.273
a,524681,0.000,0.000,36.000,0.000,1.978,0.273,0.033,0.188,0.152,9.858,0.247
a,524686,0.000,0.000,36.000,0.000,1.978,-0.063,0.140,-0.683,0.180,9.893,0.250
a,524689,0.000,0.000,36.000,0.000,1.934,-0.109,-0.028,-0.087,0.188,9.874,0.247
a,524694,0.000,0.000,36.000,0.000,1.978,-0.124,-0.241,-0.530,0.180,9.834,0.241
a,524698,0.000,0.000,36.000,0.000,1.978,0.181,-0.104,0.951,0.178,9.906,0.261
a,524701,0.000,0.000,36.000,0.000,2.021,0.059,0.094,0.508,0.174,9.847,0.254
a,524705,0.000,0.000,36.000,0.000,2.021,-0.170,-0.074,-1.171,0.174,9.880,0.259
a,524709,0.000,0.000,36.000,0.000,2.021,-0.002,-0.028,-0.408,0.174,9.844,0.253
a,524713,0.000,0.000,36.000,0.000,2.021,0.044,0.140,-0.866,0.160,9.864,0.250
a,524717,0.000,0.000,36.000,0.000,1.978,0.120,0.049,-0.270,0.181,9.880,0.273
a,524721,0.000,0.000,36.000,0.000,2.021,0.212,-0.196,-1.186,0.176,9.872,0.253
a,524725,0.000,0.000,36.000,0.000,1.978,0.059,0.049,0.508,0.195,9.895,0.260
a,524729,0.000,0.000,36.000,0.000,2.021,0.013,-0.058,0.249,0.168,9.871,0.269
a,524733,0.000,0.000,36.000,0.000,2.021,0.120,-0.028,-0.102,0.176,9.858,0.233
a,524737,0.000,0.000,36.000,0.000,2.021,-0.231,-0.028,-0.912,0.198,9.875,0.262
a,524741,0.000,0.000,36.000,0.000,1.978,0.059,-0.180,0.569,0.168,9.865,0.247
a,524745,0.000,0.000,36.000,0.000,2.021,0.013,0.033,0.249,0.181,9.877,0.247
a,524750,0.000,0.000,36.000,0.000,2.021,0.013,-0.180,0.356,0.189,9.852,0.255
a,524753,0.000,0.000,36.000,0.000,1.978,0.166,0.033,0.127,0.163,9.912,0.244
a,524757,0.000,0.000,36.000,0.000,1.978,0.059,0.094,0.462,0.165,9.877,0.262
a,524761,0.000,0.000,36.000,0.000,1.934,-0.155,0.049,0.478,0.180,9.896,0.272
a,524765,0.000,0.000,36.000,0.000,1.978,0.059,0.094,0.401,0.174,9.893,0.275
a,524769,0.000,0.000,36.000,0.000,1.978,-0.048,0.247,-0.270,0.174,9.872,0.266
a,524773,0.000,0.000,36.000,0.000,1.934,0.074,-0.211,-0.255,0.183,9.869,0.279
a,524777,0.000,0.000,36.000,0.000,1.978,0.013,-0.058,0.524,0.207,9.861,0.256
a,524781,0.000,0.000,36.000,0.000,1.934,0.013,0.140,0.096,0.176,9.899,0.237
a,524786,0.000,0.000,36.000,0.000,1.978,-0.109,0.079,0.096,0.170,9.888,0.260
a,524789,0.000,0.000,36.000,0.000,2.021,0.029,0.171,1.562,0.165,9.874,0.261
a,524793,0.000,0.000,36.000,0.000,1.978,-0.048,0.094,0.310,0.164,9.867,0.241
a,524797,0.000,0.000,36.000,0.000,2.021,0.059,0.049,0.569,0.174,9.876,0.238
a,524801,0.000,0.000,36.000,0.000,1.978,0.105,0.308,-1.049,0.195,9.890,0.259
a,524806,0.000,0.000,36.000,0.000,2.021,-0.231,-0.074,-0.744,0.164,9.815,0.244
a,524810,0.000,0.000,36.000,0.000,1.978,0.013,-0.028,0.249,0.165,9.877,0.260
a,524814,0.000,0.000,36.000,0.000,2.065,0.044,0.079,-0.759,0.154,9.870,0.266
a,524817,0.000,0.000,36.000,0.000,1.978,-0.063,0.079,-0.637,0.180,9.870,0.237
a,524821,0.000,0.000,36.000,0.000,2.065,0.044,-0.028,-0.423,0.194,9.883,0.266
a,524825,0.000,0.000,36.000,0.000,1.978,-0.002,-0.196,-0.530,0.174,9.874,0.262
a,524829,0.000,0.000,36.000,0.000,1.978,-0.170,-0.135,-1.278,0.178,9.882,0.242
a,524834,0.000,0.000,36.000,0.000,2.021,-0.216,-0.058,0.524,0.188,9.898,0.260
a,524838,0.000,0.000,36.000,0.000,1.934,0.013,-0.028,-0.362,0.188,9.898,0.238
a,524841,0.000,0.000,36.000,0.000,2.021,0.258,-0.058,-0.591,0.194,9.872,0.242
a,524846,0.000,0.000,36.000,0.000,1.978,-0.170,-0.409,-0.469,0.174,9.838,0.250
a,524849,0.000,0.000,36.000,0.000,2.021,-0.124,0.079,-0.408,0.176,9.901,0.265
a,524853,0.000,0.000,36.000,0.000,2.021,-0.002,-0.135,-0.637,0.170,9.899,0.227
a,524857,0.000,0.000,36.000,0.000,2.021,0.136,0.155,1.333,0.174,9.886,0.242
a,524861,0.000,0.000,36.000,0.000,1.934,0.120,-0.135,-0.270,0.195,9.884,0.255
a,524865,0.000,0.000,36.000,0.000,1.978,0.227,-0.180,-0.163,0.165,9.874,0.275
a,524869,0.000,0.000,36.000,0.000,1.978,-0.048,0.003,0.737,0.186,9.888,0.277
a,524873,0.000,0.000,36.000,0.000,1.978,-0.170,-0.303,-0.912,0.172,9.888,0.271
a,524877,0.000,0.000,36.000,0.000,2.021,0.120,-0.074,0.233,0.192,9.884,0.249
a,524881,0.000,0.000,36.000,0.000,1.978,-0.063,-0.074,-0.637,0.174,9.868,0.244
a,524885,0.000,0.000,36.000,0.000,2.021,-0.109,0.094,0.692,0.181,9.894,0.263
a,524889,0.000,0.000,36.000,0.000,1.978,0.105,-0.074,-0.805,0.150,9.894,0.250
a,524893,0.000,0.000,36.000,0.000,1.978,-0.155,-0.012,0.417,0.160,9.867,0.263
a,524897,0.000,0.000,36.000,0.000,1.978,-0.109,-0.074,0.096,0.174,9.858,0.253
a,524902,0.000,0.000,36.000,0.000,1.978,-0.124,-0.074,-0.789,0.209,9.840,0.250
a,524905,0.000,0.000,36.000,0.000,1.978,-0.048,0.079,0.249,0.164,9.865,0.247
a,524909,0.000,0.000,36.000,0.000,2.021,0.105,-0.028,-0.759,0.181,9.880,0.273
a,524913,0.000,0.000,36.000,0.000,2.021,-0.048,-0.150,-0.667,0.188,9.844,0.226
a,524917,0.000,0.000,36.000,0.000,1.934,0.044,0.201,-1.079,0.209,9.911,0.256
a,524921,0.000,0.000,36.000,0.000,2.021,0.044,0.033,-0.545,0.192,9.910,0.244
a,524925,0.000,0.000,36.000,0.000,1.978,0.227,-0.012,0.722,0.170,9.883,0.233
a,524929,0.000,0.000,36.000,0.000,2.021,0.029,0.018,-0.133,0.183,9.890,0.253
a,524934,0.000,0.000,36.000,0.000,1.978,-0.124,0.140,-0.683,0.183,9.865,0.248
a,524938,0.000,0.000,36.000,0.000,1.978,-0.048,0.049,0.203,0.180,9.877,0.257
a,524942,0.000,0.000,36.000,0.000,2.021,0.151,-0.012,-0.591,0.183,9.837,0.266
a,524945,0.000,0.000,36.000,0.000,2.065,-0.109,0.155,0.310,0.181,9.843,0.263
a,524949,0.000,0.000,36.000,0.000,2.021,0.120,0.033,0.233,0.192,9.868,0.253
a,524953,0.000,0.000,36.000,0.000,2.021,-0.002,-0.012,-0.530,0.189,9.880,0.248
a,524958,0.000,0.000,36.000,0.000,1.978,-0.048,0.201,0.737,0.180,9.881,0.260
a,524962,0.000,0.000,36.000,0.000,2.021,-0.139,0.400,-0.255,0.183,9.871,0.266
a,524965,0.000,0.000,36.000,0.000,2.021,-0.139,-0.074,0.753,0.186,9.877,0.239
a,524969,0.000,0.000,36.000,0.000,1.934,-0.078,-0.150,-1.721,0.209,9.889,0.242
a,524974,0.000,0.000,36.000,0.000,2.021,0.227,0.018,-0.637,0.172,9.888,0.244
a,524978,0.000,0.000,36.000,0.000,1.978,-0.109,0.094,0.844,0.183,9.872,0.284
a,524982,0.000,0.000,36.000,0.000,2.021,0.044,-0.074,-0.652,0.163,9.905,0.254
a,524985,0.000,0.000,36.000,0.000,2.021,-0.063,0.354,-0.927,0.194,9.906,0.255
a,524989,0.000,0.000,36.000,0.000,1.978,0.029,-0.180,0.905,0.174,9.883,0.260
a,524993,0.000,0.000,36.000,0.000,1.978,-0.109,-0.119,0.356,0.186,9.878,0.255
a,524997,0.000,0.000,36.000,0.000,2.021,-0.048,0.049,0.356,0.178,9.850,0.253
a,525001,0.000,0.000,36.000,0.000,2.021,-0.139,0.049,1.608,0.164,9.869,0.262
a,525005,0.000,0.000,36.000,0.000,2.021,-0.170,0.094,-0.850,0.176,9.874,0.244
a,525009,0.000,0.000,36.000,0.000,2.021,0.059,-0.119,0.401,0.183,9.822,0.238
a,525013,0.000,0.000,36.000,0.000,2.021,-0.109,-0.074,-0.041,0.165,9.865,0.272
a,525017,0.000,0.000,36.000,0.000,1.978,0.013,0.186,-0.041,0.168,9.888,0.262
a,525021,0.000,0.000,36.000,0.000,1.978,-0.048,0.049,0.310,0.170,9.877,0.232
a,525025,0.000,0.000,36.000,0.000,1.934,0.120,-0.058,0.462,0.189,9.904,0.236
a,525029,0.000,0.000,36.000,0.000,1.978,0.136,-0.150,-0.041,0.189,9.880,0.211
a,525034,0.000,0.000,36.000,0.000,2.021,-0.155,-0.074,-0.041,0.189,9.896,0.247
a,525037,0.000,0.000,36.000,0.000,1.978,-0.109,-0.028,-0.301,0.176,9.880,0.253
a,525041,0.000,0.000,36.000,0.000,1.978,-0.124,0.049,0.020,0.165,9.876,0.253
a,525045,0.000,0.000,36.000,0.000,2.021,-0.048,0.155,0.692,0.172,9.887,0.250
a,525049,0.000,0.000,36.000,0.000,2.021,0.273,-0.012,0.508,0.176,9.877,0.257
a,525053,0.000,0.000,36.000,0.000,2.021,-0.063,-0.196,-1.171,0.172,9.890,0.250
a,525057,0.000,0.000,36.000,0.000,2.021,0.029,-0.043,1.348,0.198,9.876,0.253
a,525061,0.000,0.000,36.000,0.000,1.978,0.044,0.186,-1.186,0.195,9.851,0.262
a,525065,0.000,0.000,36.000,0.000,2.021,-0.002,0.079,-0.576,0.186,9.874,0.244
a,525069,0.000,0.000,36.000,0.000,2.021,-0.109,0.094,0.630,0.176,9.871,0.232
a,525073,0.000,0.000,36.000,0.000,1.978,0.013,0.033,0.249,0.170,9.884,0.255
a,525077,0.000,0.000,36.000,0.000,2.021,0.105,-0.409,-0.591,0.194,9.871,0.259
a,525082,0.000,0.000,36.000,0.000,2.021,-0.063,0.079,-0.683,0.183,9.882,0.242
a,525086,0.000,0.000,36.000,0.000,1.978,0.105,-0.196,-0.423,0.204,9.886,0.247
a,525089,0.000,0.000,36.000,0.000,1.978,0.074,-0.180,0.997,0.188,9.869,0.281
a,525093,0.000,0.000,36.000,0.000,2.021,-0.139,0.049,1.012,0.181,9.883,0.237
a,525097,0.000,0.000,36.000,0.000,2.065,-0.002,-0.196,-1.446,0.170,9.900,0.266
a,525101,0.000,0.000,36.000,0.000,2.021,-0.109,-0.119,-0.301,0.195,9.877,0.267
a,525105,0.000,0.000,36.000,0.000,2.021,-0.048,-0.135,0.203,0.181,9.856,0.268
a,525110,0.000,0.000,36.000,0.000,1.934,-0.048,0.155,0.203,0.168,9.888,0.277
a,525114,0.000,0.000,36.000,0.000,1.978,0.151,-0.074,-0.545,0.174,9.869,0.261
a,525117,0.000,0.000,36.000,0.000,1.978,-0.048,-0.074,0.249,0.204,9.887,0.250
a,525121,0.000,0.000,36.000,0.000,2.065,0.044,-0.196,-0.591,0.168,9.856,0.260
a,525126,0.000,0.000,36.000,0.000,2.065,0.166,-0.089,-0.683,0.168,9.869,0.253
a,525130,0.000,0.000,36.000,0.000,1.978,0.166,-0.074,0.188,0.178,9.878,0.250
a,525134,0.000,0.000,36.000,0.000,2.021,0.151,0.079,-1.675,0.192,9.869,0.287
a,525137,0.000,0.000,36.000,0.000,1.978,-0.048,-0.043,0.798,0.168,9.920,0.247
a,525141,0.000,0.000,36.000,0.000,1.978,0.059,0.155,0.569,0.195,9.850,0.259
a,525145,0.000,0.000,36.000,0.000,1.978,0.044,-0.165,0.569,0.172,9.900,0.277
a,525149,0.000,0.000,36.000,0.000,1.978,-0.475,-4.425,-3.202,2.036,9.937,-0.207
a,525153,0.000,0.000,36.000,0.000,1.934,-6.093,3.453,-0.362,-1.714,8.056,0.581
a,525157,0.000,0.000,36.000,0.000,1.978,14.426,3.316,-4.499,-0.026,11.346,2.205
a,525161,0.000,0.000,36.000,0.000,1.978,18.074,0.079,-2.316,1.677,12.429,0.782
a,525165,0.000,0.000,36.000,0.000,2.021,-7.788,-0.608,9.974,0.839,11.594,-0.353
a,525169,0.000,0.000,36.000,0.000,2.021,-12.399,0.003,6.798,-0.455,10.032,-1.162
a,525173,0.000,0.000,36.000,0.000,2.021,4.655,0.568,-8.240,-0.753,9.088,-1.289
a,525177,0.000,0.000,36.000,0.000,2.021,5.555,1.865,-10.209,0.055,9.275,-0.360
a,525181,0.000,0.000,36.000,0.000,1.978,-6.521,-1.814,-3.293,1.591,10.403,0.952
a,525186,0.000,0.000,36.000,0.000,2.021,-10.628,-1.616,5.058,0.727,9.099,1.302
a,525189,0.000,0.000,36.000,0.000,2.021,1.968,-1.234,4.615,-0.078,8.790,1.428
a,525193,0.000,0.000,36.000,0.000,1.978,11.097,-0.135,-0.240,-0.589,8.665,0.549
a,525197,0.000,0.000,36.000,0.000,1.978,6.242,0.476,0.249,0.008,10.540,0.209
a,525201,0.000,0.000,36.000,0.000,1.978,-1.880,1.148,1.653,0.018,11.258,-0.004
a,525205,0.000,0.000,36.000,0.000,1.934,-3.468,0.751,0.875,-0.026,10.646,-0.281
a,525209,0.000,0.000,36.000,0.000,2.021,-1.880,1.804,-2.560,-0.050,9.585,-0.466
a,525213,0.000,0.000,36.000,0.000,1.978,0.792,0.949,-3.568,0.366,9.705,0.096
a,525217,0.000,0.000,36.000,0.000,1.978,-0.109,0.308,-0.377,0.789,9.995,0.455
a,525221,0.000,0.000,36.000,0.000,2.021,-2.032,-1.188,3.455,0.895,9.963,0.432
a,525226,0.000,0.000,36.000,0.000,1.978,-1.864,-1.142,2.844,0.063,9.173,-0.063
a,525230,0.000,0.000,36.000,0.000,2.021,1.036,-1.646,-0.621,0.041,9.396,-0.092
a,525233,0.000,0.000,36.000,0.000,1.978,0.090,-1.295,-2.133,-0.151,9.987,0.135
a,525237,0.000,0.000,36.000,0.000,2.021,-3.391,0.507,-2.240,-0.364,10.305,0.871
a,525241,0.000,0.000,36.000,0.000,2.021,-2.735,1.133,-0.209,0.002,9.956,0.905
a,525245,0.000,0.000,36.000,0.000,2.021,2.990,0.812,-0.912,0.230,9.619,0.880
a,525250,0.000,0.000,36.000,0.000,2.065,5.006,1.316,2.432,0.254,9.609,0.554
a,525254,0.000,0.000,36.000,0.000,2.021,3.097,0.171,3.088,0.510,10.285,0.072
a,525257,0.000,0.000,36.000,0.000,1.978,-0.887,-0.104,2.478,0.250,10.149,-0.537
a,525261,0.000,0.000,36.000,0.000,2.021,-2.567,-0.241,-1.308,0.101,9.783,-0.730
a,525265,0.000,0.000,36.000,0.000,1.934,-1.788,-0.440,-4.377,0.024,9.544,-0.377
a,525269,0.000,0.000,36.000,0.000,2.021,-1.391,-0.532,-1.797,0.326,9.785,0.368
a,525273,0.000,0.000,36.000,0.000,2.021,-1.697,-0.883,-0.652,0.484,9.940,0.874
a,525278,0.000,0.000,36.000,0.000,1.978,-0.582,-1.051,1.470,0.291,9.877,0.895
a,525282,0.000,0.000,36.000,0.000,2.021,2.273,0.155,1.043,-0.135,9.789,0.567
a,525285,0.000,0.000,36.000,0.000,2.065,2.853,0.476,0.035,-0.162,9.998,0.248
a,525290,0.000,0.000,36.000,0.000,1.978,0.899,0.629,0.111,0.030,10.268,-0.065
a,525293,0.000,0.000,36.000,0.000,1.978,-2.460,0.186,-1.308,0.236,10.181,-0.119
a,525297,0.000,0.000,36.000,0.000,1.934,-2.994,0.354,-0.728,0.230,9.582,-0.002
a,525301,0.000,0.000,36.000,0.000,2.021,-2.964,-0.577,-1.782,0.114,8.874,0.221
a,525305,0.000,0.000,36.000,0.000,2.021,3.113,0.736,-1.186,0.273,9.680,0.837
a,525309,0.000,0.000,36.000,0.000,2.021,4.807,-0.333,0.020,0.645,10.313,0.759
a,525313,0.000,0.000,36.000,0.000,1.978,0.105,-1.035,3.577,0.494,10.515,0.231
a,525317,0.000,0.000,36.000,0.000,1.978,-3.437,-1.081,2.768,-0.101,10.141,-0.227
a,525321,0.000,0.000,36.000,0.000,1.978,-0.078,0.675,-2.713,-0.585,9.600,-0.273
a,525325,0.000,0.000,36.000,0.000,1.978,3.113,1.041,-4.469,-0.101,10.017,0.069
a,525329,0.000,0.000,36.000,0.000,1.978,-2.063,0.186,0.111,0.786,10.447,0.510
a,525334,0.000,0.000,36.000,0.000,1.978,-5.620,-0.867,3.821,0.437,9.613,0.628
a,525337,0.000,0.000,36.000,0.000,2.021,0.670,0.049,0.508,-0.122,8.933,0.518
a,525341,0.000,0.000,36.000,0.000,1.934,6.639,0.033,-1.873,0.072,9.363,0.387
a,525345,0.000,0.000,36.000,0.000,2.021,2.960,-0.287,0.264,0.500,10.033,0.136
a,525349,0.000,0.000,36.000,0.000,1.978,-4.780,-0.394,1.562,0.090,10.072,0.102
a,525353,0.000,0.000,36.000,0.000,2.021,-1.864,0.461,-0.789,-0.442,9.629,0.214
a,525357,0.000,0.000,36.000,0.000,1.978,6.181,0.781,-5.003,0.134,10.058,0.381
a,525361,0.000,0.000,36.000,0.000,1.978,2.670,0.843,-0.850,0.548,10.391,0.445
a,525365,0.000,0.000,36.000,0.000,2.021,-2.994,0.018,3.653,0.581,10.584,0.336
a,525369,0.000,0.000,36.000,0.000,1.934,-1.605,-0.486,2.081,0.092,9.808,-0.090
a,525373,0.000,0.000,36.000,0.000,1.978,2.624,0.568,-1.721,-0.213,9.324,-0.261
a,525377,0.000,0.000,36.000,0.000,2.109,1.052,-0.089,-1.553,0.344,9.834,-0.042
a,525382,0.000,0.000,36.000,0.000,1.978,-3.803,-1.203,0.432,0.670,10.277,0.336
a,525386,0.000,0.000,36.000,0.000,1.978,-4.842,-1.157,1.302,0.198,9.485,0.466
a,525389,0.000,0.000,36.000,0.000,2.021,0.258,-0.196,-0.423,-0.213,9.080,0.530
a,525393,0.000,0.000,36.000,0.000,2.021,4.395,0.507,-1.858,-0.095,9.489,0.746
a,525397,0.000,0.000,36.000,0.000,2.021,2.914,0.690,1.058,0.291,10.490,0.663
a,525401,0.000,0.000,36.000,0.000,2.021,-1.208,-0.150,2.829,0.484,10.582,0.190
a,525405,0.000,0.000,36.000,0.000,2.065,-2.048,-0.012,1.577,-0.085,9.770,-0.262
a,525410,0.000,0.000,36.000,0.000,2.021,1.739,0.934,-2.713,-0.162,9.674,-0.242
a,525414,0.000,0.000,36.000,0.000,2.021,2.105,0.675,-2.362,0.417,10.216,0.038
a,525417,0.000,0.000,36.000,0.000,1.978,-3.452,-0.333,-0.499,0.713,10.349,0.241
a,525421,0.000,0.000,36.000,0.000,2.065,-5.803,-1.249,2.432,0.437,9.777,0.314
a,525425,0.000,0.000,36.000,0.000,1.978,-0.979,-0.990,0.814,-0.081,9.019,0.266
a,525429,0.000,0.000,36.000,0.000,2.021,4.288,0.064,-2.591,-0.101,9.369,0.492
a,525433,0.000,0.000,36.000,0.000,1.934,2.013,0.079,-0.881,0.219,10.208,0.700
a,525438,0.000,0.000,36.000,0.000,1.978,-2.139,0.125,2.554,0.269,10.307,0.569
a,525441,0.000,0.000,36.000,0.000,1.934,-0.490,0.415,-0.270,-0.024,9.793,0.287
a,525446,0.000,0.000,36.000,0.000,1.978,4.029,0.736,-1.522,0.047,9.770,0.089
a,525449,0.000,0.000,36.000,0.000,1.934,2.731,0.415,-1.293,0.298,10.159,-0.002
a,525453,0.000,0.000,36.000,0.000,1.978,-1.513,-0.119,0.814,0.484,10.404,0.016
a,525457,0.000,0.000,36.000,0.000,1.978,-2.933,-0.348,0.127,0.236,9.870,-0.071
a,525461,0.000,0.000,36.000,0.000,1.978,-0.155,-0.409,-0.362,0.079,9.446,0.012
a,525465,0.000,0.000,36.000,0.000,2.021,1.265,-0.150,-1.247,0.168,9.518,0.281
a,525469,0.000,0.000,36.000,0.000,2.021,-0.322,-0.730,0.264,0.366,10.060,0.599
a,525473,0.000,0.000,36.000,0.000,2.021,-0.903,-0.180,2.096,0.244,10.096,0.549
a,525477,0.000,0.000,36.000,0.000,1.978,-0.429,-0.455,0.035,-0.057,9.805,0.394
a,525481,0.000,0.000,36.000,0.000,2.021,-1.025,-1.768,-0.057,0.577,9.364,-0.166
a,525485,0.000,0.000,36.000,0.000,2.021,0.487,3.514,-1.431,-0.947,9.341,0.666
a,525489,0.000,0.000,36.000,0.000,1.978,6.227,0.736,-0.744,0.370,10.567,0.824
a,525493,0.000,0.000,36.000,0.000,1.978,0.227,-0.715,0.844,1.153,11.046,-0.030
a,525497,0.000,0.000,36.000,0.000,2.065,-9.300,-0.196,5.501,-0.101,9.384,-0.360
a,525502,0.000,0.000,36.000,0.000,1.978,0.914,0.125,-1.950,-0.348,9.279,-0.201
a,525505,0.000,0.000,36.000,0.000,1.978,5.387,-0.776,-6.041,0.832,9.351,-0.328
a,525509,0.000,0.000,36.000,0.000,1.978,-3.666,6.720,-2.912,-1.664,9.364,1.612
a,525513,0.000,0.000,36.000,0.000,1.978,1.907,-3.677,-1.079,1.152,10.889,1.832
a,525517,0.000,0.000,36.000,0.000,1.978,-1.086,1.148,0.829,-0.967,9.091,-0.071
a,525521,0.000,0.000,36.000,0.000,1.978,3.647,-1.325,-0.942,0.080,11.167,1.001
a,525526,0.000,0.000,36.000,0.000,2.065,4.609,1.881,-2.652,-0.048,10.912,0.196
a,525530,0.000,0.000,36.000,0.000,2.021,4.303,-0.837,-1.492,0.754,11.204,0.275
a,525533,0.000,0.000,36.000,0.000,2.021,-4.216,2.171,0.966,0.108,9.900,-0.010
a,525537,0.000,0.000,36.000,0.000,1.934,-1.193,-0.990,0.447,0.139,9.943,0.387
a,525541,0.000,0.000,36.000,0.000,1.978,1.235,1.056,-2.270,0.172,9.214,0.029
a,525545,0.000,0.000,36.000,0.000,1.978,1.907,-0.409,-1.202,0.272,9.858,0.631
a,525550,0.000,0.000,36.000,0.000,2.021,-0.200,0.155,1.501,0.372,10.102,0.447
a,525554,0.000,0.000,36.000,0.000,1.890,-0.307,-1.692,2.081,0.479,10.351,0.406
a,525557,0.000,0.000,36.000,0.000,1.978,-0.338,0.629,-0.423,-0.475,9.486,0.013
a,525561,0.000,0.000,36.000,0.000,1.978,1.784,-0.577,-1.843,0.127,10.203,0.190
a,525565,0.000,0.000,36.000,0.000,1.978,-0.063,0.461,-1.354,0.085,10.150,0.189
a,525569,0.000,0.000,36.000,0.000,1.978,-2.170,0.094,0.493,0.281,10.036,0.370
a,525573,0.000,0.000,36.000,0.000,1.978,-1.361,0.079,-0.347,0.186,9.758,0.250
a,525577,0.000,0.000,36.000,0.000,1.934,1.021,-0.180,1.333,0.256,9.590,0.310
a,525581,0.000,0.000,36.000,0.000,1.978,0.670,0.537,0.325,0.123,9.504,0.165
a,525586,0.000,0.000,36.000,0.000,2.417,-0.216,-1.066,0.218,0.431,10.081,0.254
a,525589,0.000,0.000,36.000,0.000,2.021,-1.345,-0.180,0.982,0.079,9.878,0.085
a,525593,0.000,0.000,36.000,0.000,2.021,-0.658,-0.241,-0.744,0.041,9.856,0.273
a,525598,0.000,0.000,36.000,0.000,1.978,0.716,0.537,-0.988,0.012,9.740,0.300
a,525601,0.000,0.000,36.000,0.000,2.021,1.036,0.308,-0.774,0.326,10.161,0.487
a,525605,0.000,0.000,36.000,0.000,2.021,0.227,0.430,0.600,0.251,10.040,0.345
a,525609,0.000,0.000,36.000,0.000,1.978,0.074,-0.119,1.760,0.279,10.080,0.298
a,525613,0.000,0.000,36.000,0.000,1.978,0.609,0.049,-0.545,0.085,9.766,-0.002
a,525617,0.000,0.000,36.000,0.000,1.978,0.334,-0.303,0.127,0.204,9.840,0.053
a,525621,0.000,0.000,36.000,0.000,2.021,-1.315,-0.241,-1.003,0.170,9.805,0.055
a,525625,0.000,0.000,36.000,0.000,2.021,-1.635,-0.501,-0.927,0.217,9.799,0.316
a,525629,0.000,0.000,36.000,0.000,2.021,-0.322,-0.241,0.035,0.079,9.554,0.479
a,525633,0.000,0.000,36.000,0.000,2.021,1.555,0.262,0.921,0.145,9.706,0.662
a,525637,0.000,0.000,36.000,0.000,1.978,2.410,0.323,0.462,0.219,9.928,0.571
a,525641,0.000,0.000,36.000,0.000,2.021,1.464,0.171,2.233,0.225,10.113,0.266
a,525645,0.000,0.000,36.000,0.000,1.978,0.502,0.537,0.661,0.121,10.114,-0.036
a,525650,0.000,0.000,36.000,0.000,1.978,-0.384,0.079,-0.469,0.110,10.026,-0.182
a,525653,0.000,0.000,36.000,0.000,2.021,-0.933,-0.028,-1.171,0.147,9.858,-0.140
a,525657,0.000,0.000,36.000,0.000,1.978,-1.620,0.125,-0.881,0.207,9.857,0.214
a,525661,0.000,0.000,36.000,0.000,2.021,-1.300,-0.409,-0.347,0.339,9.705,0.456
a,525665,0.000,0.000,36.000,0.000,1.978,-0.048,-0.119,0.310,0.310,9.787,0.558
a,525669,0.000,0.000,36.000,0.000,2.021,0.746,-0.226,1.867,0.209,9.692,0.462
a,525673,0.000,0.000,36.000,0.000,2.021,1.281,0.094,1.195,-0.024,9.907,0.314
a,525677,0.000,0.000,36.000,0.000,1.978,1.006,0.110,0.569,0.077,10.127,0.145
a,525681,0.000,0.000,36.000,0.000,2.021,-1.086,0.049,0.859,0.244,10.047,-0.048
a,525686,0.000,0.000,36.000,0.000,2.021,-1.697,0.629,-1.232,0.063,9.867,0.123
a,525689,0.000,0.000,36.000,0.000,1.934,0.548,0.476,-1.690,0.300,9.867,0.273
a,525693,0.000,0.000,36.000,0.000,2.021,-1.681,-0.776,0.615,0.350,9.718,0.237
a,525697,0.000,0.000,36.000,0.000,1.978,0.349,0.155,1.440,0.475,10.005,0.308
a,525701,0.000,0.000,36.000,0.000,1.978,-1.345,-0.394,1.241,-0.079,9.125,0.104
a,525706,0.000,0.000,36.000,0.000,1.978,0.670,-0.211,0.569,0.142,9.900,0.238
a,525710,0.000,0.000,36.000,0.000,2.021,-0.613,-0.074,-1.278,0.065,9.847,0.208
a,525713,0.000,0.000,36.000,0.000,1.978,0.105,0.461,-0.713,0.079,9.847,0.381
a,525717,0.000,0.000,36.000,0.000,2.021,0.013,-0.364,-0.454,0.277,10.075,0.449
a,525722,0.000,0.000,36.000,0.000,1.978,0.838,0.140,-0.163,0.403,10.127,0.426
a,525725,0.000,0.000,36.000,0.000,1.934,0.502,0.140,0.233,0.090,9.659,0.116
a,525729,0.000,0.000,36.000,0.000,2.021,1.113,0.155,0.829,0.189,10.013,0.087
a,525733,0.000,0.000,36.000,0.000,1.978,0.334,-0.303,0.188,0.195,9.987,-0.055
a,525738,0.000,0.000,36.000,0.000,1.978,-1.422,0.079,-1.431,0.245,9.908,0.108
a,525741,0.000,0.000,36.000,0.000,2.065,-1.468,-0.608,0.554,0.174,9.735,0.255
a,525746,0.000,0.000,36.000,0.000,1.934,-0.597,0.186,0.249,0.201,9.786,0.506
a,525749,0.000,0.000,36.000,0.000,2.021,0.945,-0.074,-0.270,0.092,9.682,0.602
a,525753,0.000,0.000,36.000,0.000,2.021,1.158,0.522,0.218,0.174,9.851,0.521
a,525757,0.000,0.000,36.000,0.000,1.978,1.174,-0.119,1.653,0.180,9.981,0.284
a,525761,0.000,0.000,36.000,0.000,2.021,0.746,0.430,0.982,0.098,10.013,0.042
a,525765,0.000,0.000,36.000,0.000,1.978,0.319,0.247,-0.774,0.139,9.974,-0.071
a,525769,0.000,0.000,36.000,0.000,1.978,-0.933,0.430,-0.545,0.204,10.005,0.008
a,525773,0.000,0.000,36.000,0.000,1.978,-1.590,-0.180,-0.835,0.267,9.867,0.213
a,525777,0.000,0.000,36.000,0.000,2.021,-0.857,0.049,0.356,0.281,9.765,0.388
a,525781,0.000,0.000,36.000,0.000,1.978,0.639,-0.333,1.333,0.281,9.747,0.456
a,525785,0.000,0.000,36.000,0.000,1.978,0.639,-0.119,1.104,0.165,9.729,0.363
a,525789,0.000,0.000,36.000,0.000,2.021,0.578,-0.333,1.211,0.105,9.914,0.271
a,525793,0.000,0.000,36.000,0.000,1.934,-0.170,0.201,-0.408,0.069,9.978,0.139
a,525797,0.000,0.000,36.000,0.000,1.978,-0.445,-0.028,-0.744,0.072,9.871,0.139
a,525802,0.000,0.000,36.000,0.000,2.021,-0.139,0.400,-2.225,0.209,9.901,0.290
a,525805,0.000,0.000,36.000,0.000,1.978,0.166,-0.409,-0.163,0.318,9.935,0.371
a,525809,0.000,0.000,36.000,0.000,2.021,0.166,0.155,0.829,0.257,9.840,0.368
a,525813,0.000,0.000,36.000,0.000,1.978,0.380,-0.440,0.783,0.164,9.869,0.218
a,525817,0.000,0.000,36.000,0.000,2.021,0.517,-0.058,1.379,0.098,9.870,0.097
a,525821,0.000,0.000,36.000,0.000,1.978,-0.231,-0.241,-1.018,0.090,9.904,0.053
a,525825,0.000,0.000,36.000,0.000,1.978,-0.933,0.079,-0.637,0.111,9.920,0.186
a,525830,0.000,0.000,36.000,0.000,2.021,-0.826,0.033,-1.400,0.178,9.867,0.379
a,525833,0.000,0.000,36.000,0.000,1.978,0.273,0.461,0.004,0.232,9.790,0.517
a,525837,0.000,0.000,36.000,0.000,1.934,1.067,-0.012,0.890,0.256,9.846,0.492
a,525841,0.000,0.000,36.000,0.000,2.021,1.113,0.217,1.150,0.236,9.893,0.314
a,525846,0.000,0.000,36.000,0.000,1.934,0.792,-0.012,0.997,0.147,9.973,0.066
a,525850,0.000,0.000,36.000,0.000,1.978,-0.322,-0.043,0.630,0.121,9.941,-0.081
a,525854,0.000,0.000,36.000,0.000,2.021,-0.826,-0.012,-1.339,0.126,9.919,-0.007
a,525857,0.000,0.000,36.000,0.000,1.978,-1.254,-0.028,-0.774,0.204,9.871,0.217
a,525861,0.000,0.000,36.000,0.000,1.934,-0.826,-0.241,-1.660,0.244,9.805,0.482
a,525865,0.000,0.000,36.000,0.000,1.978,-0.124,-0.028,-0.408,0.225,9.768,0.577
a,525869,0.000,0.000,36.000,0.000,1.934,1.235,0.049,1.684,0.195,9.801,0.482
a,525873,0.000,0.000,36.000,0.000,1.978,1.235,0.094,1.256,0.102,9.870,0.253
a,525877,0.000,0.000,36.000,0.000,1.978,0.731,0.278,0.707,0.105,9.963,0.056
a,525881,0.000,0.000,36.000,0.000,2.021,-0.536,-0.028,-0.194,0.129,10.019,-0.037
a,525886,0.000,0.000,36.000,0.000,1.978,-1.208,-0.028,-0.454,0.163,9.917,0.073
a,525889,0.000,0.000,36.000,0.000,1.978,-0.658,-0.135,-1.507,0.199,9.835,0.265
a,525893,0.000,0.000,36.000,0.000,1.978,-0.048,-0.119,0.478,0.277,9.803,0.460
a,525898,0.000,0.000,36.000,0.000,2.021,0.319,-0.058,-0.591,0.245,9.816,0.454
a,525901,0.000,0.000,36.000,0.000,2.021,0.639,-0.318,1.485,0.188,9.837,0.358
a,525905,0.000,0.000,36.000,0.000,2.021,0.456,-0.043,1.333,0.092,9.852,0.211
a,525909,0.000,0.000,36.000,0.000,1.978,0.151,0.033,-0.866,0.061,9.899,0.120
a,525913,0.000,0.000,36.000,0.000,1.978,-0.261,0.232,-0.530,0.134,9.948,0.142
a,525917,0.000,0.000,36.000,0.000,1.978,-0.322,-0.074,0.035,0.236,9.938,0.259
a,525921,0.000,0.000,36.000,0.000,1.978,-0.170,0.049,-0.744,0.251,9.874,0.329
a,525925,0.000,0.000,36.000,0.000,2.021,0.365,-0.028,-0.759,0.254,9.880,0.327
a,525929,0.000,0.000,36.000,0.000,1.934,0.685,-0.058,1.440,0.195,9.857,0.242
a,525933,0.000,0.000,36.000,0.000,2.021,0.120,-0.287,0.508,0.160,9.901,0.170
a,525937,0.000,0.000,36.000,0.000,1.978,-0.429,-0.119,0.692,0.132,9.934,0.150
a,525941,0.000,0.000,36.000,0.000,1.978,-0.384,0.049,-0.637,0.142,9.831,0.237
a,525946,0.000,0.000,36.000,0.000,2.021,-0.216,0.094,-0.301,0.174,9.799,0.348
a,525949,0.000,0.000,36.000,0.000,1.978,0.212,0.033,-0.484,0.220,9.819,0.425
a,525953,0.000,0.000,36.000,0.000,1.978,0.838,0.140,0.081,0.232,9.862,0.399
a,525957,0.000,0.000,36.000,0.000,1.978,0.563,-0.119,0.615,0.223,9.931,0.247
a,525961,0.000,0.000,36.000,0.000,1.978,0.120,-0.074,0.127,0.152,9.922,0.119
a,525965,0.000,0.000,36.000,0.000,1.978,-0.384,-0.028,-1.125,0.132,9.950,0.081
a,525969,0.000,0.000,36.000,0.000,2.021,-0.750,0.049,-0.148,0.154,9.937,0.123
a,525973,0.000,0.000,36.000,0.000,1.978,-0.704,0.094,0.356,0.204,9.894,0.248
a,525978,0.000,0.000,36.000,0.000,1.890,-0.597,-0.226,0.737,0.220,9.811,0.402
a,525981,0.000,0.000,36.000,0.000,1.978,0.334,-0.180,0.340,0.205,9.768,0.431
a,525985,0.000,0.000,36.000,0.000,2.021,0.563,0.094,0.569,0.181,9.801,0.389
a,525989,0.000,0.000,36.000,0.000,2.021,0.639,-0.043,1.928,0.152,9.880,0.283
a,525994,0.000,0.000,36.000,0.000,1.978,-0.155,-0.043,0.692,0.164,9.949,0.127
a,525998,0.000,0.000,36.000,0.000,1.978,-0.277,0.033,-1.018,0.164,9.941,0.116
a,526002,0.000,0.000,36.000,0.000,2.021,-0.277,-0.028,-1.660,0.205,9.907,0.193
a,526005,0.000,0.000,36.000,0.000,1.978,-0.429,-0.074,0.096,0.235,9.904,0.271
a,526009,0.000,0.000,36.000,0.000,2.021,-0.216,0.079,0.142,0.220,9.888,0.348
a,526013,0.000,0.000,36.000,0.000,1.978,0.059,-0.303,-0.163,0.199,9.858,0.348
a,526017,0.000,0.000,36.000,0.000,1.934,0.273,0.049,0.783,0.157,9.835,0.279
a,526021,0.000,0.000,36.000,0.000,2.021,0.258,-0.196,-0.759,0.141,9.857,0.226
a,526025,0.000,0.000,36.000,0.000,2.021,0.044,0.033,-0.545,0.152,9.878,0.195
a,526030,0.000,0.000,36.000,0.000,2.021,0.151,0.079,-0.973,0.176,9.887,0.231
a,526034,0.000,0.000,36.000,0.000,2.021,0.105,0.033,-0.805,0.219,9.847,0.272
a,526037,0.000,0.000,36.000,0.000,1.978,0.166,-0.012,0.462,0.213,9.878,0.289
a,526041,0.000,0.000,36.000,0.000,2.021,0.181,-0.043,0.951,0.198,9.890,0.260
a,526046,0.000,0.000,36.000,0.000,1.978,0.166,0.079,-0.057,0.204,9.896,0.215
a,526049,0.000,0.000,36.000,0.000,1.978,-0.322,0.049,0.417,0.152,9.907,0.180
a,526053,0.000,0.000,36.000,0.000,1.978,-0.216,0.094,0.417,0.183,9.880,0.208
a,526057,0.000,0.000,36.000,0.000,1.934,-0.277,0.033,-0.683,0.154,9.862,0.272
a,526061,0.000,0.000,36.000,0.000,2.065,-0.368,-0.287,0.035,0.189,9.852,0.294
a,526065,0.000,0.000,36.000,0.000,1.978,0.166,-0.303,-0.102,0.198,9.849,0.321
a,526069,0.000,0.000,36.000,0.000,1.978,0.059,-0.058,0.676,0.199,9.884,0.285
a,526073,0.000,0.000,36.000,0.000,2.021,0.319,-0.135,-0.698,0.163,9.869,0.250
a,526077,0.000,0.000,36.000,0.000,2.021,0.120,-0.074,0.127,0.164,9.896,0.192
a,526081,0.000,0.000,36.000,0.000,2.021,-0.048,0.247,-0.270,0.164,9.916,0.208
a,526085,0.000,0.000,36.000,0.000,2.021,-0.338,-0.119,-0.683,0.176,9.877,0.241
a,526089,0.000,0.000,36.000,0.000,2.021,-0.353,-0.119,-0.652,0.176,9.843,0.247
a,526093,0.000,0.000,36.000,0.000,2.021,-0.246,-0.058,-0.591,0.180,9.839,0.305
a,526098,0.000,0.000,36.000,0.000,2.021,0.242,-0.012,1.211,0.209,9.851,0.310
a,526101,0.000,0.000,36.000,0.000,2.065,0.166,0.171,0.340,0.189,9.874,0.302
a,526105,0.000,0.000,36.000,0.000,1.978,-0.048,0.033,0.142,0.136,9.881,0.231
a,526109,0.000,0.000,36.000,0.000,1.934,0.166,-0.012,0.401,0.172,9.895,0.231
a,526113,0.000,0.000,36.000,0.000,2.021,-0.109,0.308,-0.057,0.181,9.908,0.213
a,526117,0.000,0.000,36.000,0.000,2.021,-0.216,0.155,0.478,0.172,9.893,0.233
a,526121,0.000,0.000,36.000,0.000,2.021,-0.063,0.155,-1.018,0.205,9.900,0.248
a,526125,0.000,0.000,36.000,0.000,2.021,-0.109,-0.119,0.737,0.204,9.880,0.277
a,526129,0.000,0.000,36.000,0.000,1.978,-0.216,-0.074,0.142,0.178,9.898,0.266
a,526134,0.000,0.000,36.000,0.000,2.021,0.059,0.247,0.172,0.164,9.856,0.250
a,526137,0.000,0.000,36.000,0.000,1.978,0.059,0.064,0.783,0.158,9.874,0.231
a,526141,0.000,0.000,36.000,0.000,1.978,-0.002,-0.119,-0.576,0.174,9.876,0.260
a,526145,0.000,0.000,36.000,0.000,2.021,-0.155,-0.043,-0.560,0.165,9.871,0.273
a,526149,0.000,0.000,36.000,0.000,1.978,-0.109,0.155,0.096,0.163,9.815,0.289
a,526154,0.000,0.000,36.000,0.000,1.934,0.013,-0.028,0.249,0.198,9.881,0.261
a,526158,0.000,0.000,36.000,0.000,2.021,-0.216,0.110,0.630,0.199,9.887,0.232
a,526161,0.000,0.000,36.000,0.000,1.978,-0.124,0.033,-1.446,0.176,9.883,0.237
a,526165,0.000,0.000,36.000,0.000,2.021,-0.261,0.094,0.524,0.158,9.895,0.215
a,526169,0.000,0.000,36.000,0.000,1.978,-0.216,-0.043,0.798,0.174,9.872,0.238
a,526173,0.000,0.000,36.000,0.000,2.021,-0.216,0.064,0.737,0.183,9.890,0.260
a,526178,0.000,0.000,36.000,0.000,1.934,-0.170,-0.074,-0.408,0.181,9.834,0.281
a,526182,0.000,0.000,36.000,0.000,1.978,0.059,0.049,0.783,0.183,9.863,0.279
a,526185,0.000,0.000,36.000,0.000,1.978,0.059,-0.241,0.020,0.183,9.874,0.281
a,526190,0.000,0.000,36.000,0.000,1.978,0.120,-0.074,0.188,0.170,9.847,0.260
a,526193,0.000,0.000,36.000,0.000,1.978,0.212,-0.028,-1.141,0.165,9.872,0.259
a,526197,0.000,0.000,36.000,0.000,2.021,0.029,0.278,1.272,0.163,9.877,0.237
a,526201,0.000,0.000,36.000,0.000,2.021,-0.048,-0.180,0.524,0.186,9.888,0.239
a,526205,0.000,0.000,36.000,0.000,2.021,0.136,0.033,0.310,0.180,9.863,0.231
a,526209,0.000,0.000,36.000,0.000,1.978,-0.048,0.049,0.585,0.178,9.874,0.273
a,526213,0.000,0.000,36.000,0.000,1.978,-0.063,-0.074,-1.018,0.176,9.865,0.247
a,526217,0.000,0.000,36.000,0.000,2.021,-0.155,-0.303,0.035,0.165,9.825,0.249
a,526221,0.000,0.000,36.000,0.000,2.021,0.059,0.079,-0.102,0.178,9.849,0.261
a,526225,0.000,0.000,36.000,0.000,1.978,-0.155,-0.119,0.310,0.164,9.867,0.211
a,526229,0.000,0.000,36.000,0.000,1.934,-0.063,0.201,-1.232,0.186,9.890,0.256
a,526233,0.000,0.000,36.000,0.000,2.021,0.044,-0.196,-0.423,0.165,9.877,0.244
a,526238,0.000,0.000,36.000,0.000,2.021,-0.109,0.217,0.737,0.198,9.869,0.257
a,526241,0.000,0.000,36.000,0.000,1.978,0.013,-0.028,-0.148,0.195,9.871,0.277
a,526245,0.000,0.000,36.000,0.000,2.021,-0.170,-0.074,-0.789,0.188,9.884,0.281
a,526249,0.000,0.000,36.000,0.000,2.021,0.029,-0.104,1.287,0.178,9.867,0.244
a,526253,0.000,0.000,36.000,0.000,2.021,0.013,0.186,0.249,0.180,9.874,0.229
a,526257,0.000,0.000,36.000,0.000,2.065,0.074,-0.058,0.997,0.160,9.850,0.242
a,526261,0.000,0.000,36.000,0.000,1.978,0.029,-0.058,0.966,0.164,9.871,0.267
a,526265,0.000,0.000,36.000,0.000,1.978,0.151,-0.241,-0.652,0.188,9.858,0.275
a,526269,0.000,0.000,36.000,0.000,1.978,-0.048,0.049,0.798,0.194,9.888,0.277
a,526273,0.000,0.000,36.000,0.000,1.978,0.227,-0.226,0.020,0.188,9.869,0.256
a,526277,0.000,0.000,36.000,0.000,1.978,0.151,-0.348,-0.591,0.180,9.872,0.259
a,526281,0.000,0.000,36.000,0.000,1.934,0.074,0.110,1.058,0.164,9.892,0.257
a,526286,0.000,0.000,36.000,0.000,2.021,-0.048,0.110,1.440,0.170,9.894,0.238
a,526290,0.000,0.000,36.000,0.000,1.978,-0.048,0.049,-0.041,0.180,9.814,0.263
a,526293,0.000,0.000,36.000,0.000,2.021,-0.155,0.140,-0.148,0.170,9.883,0.253
a,526297,0.000,0.000,36.000,0.000,2.065,0.044,0.094,-0.759,0.164,9.831,0.269
a,526301,0.000,0.000,36.000,0.000,2.065,0.120,0.155,0.615,0.180,9.871,0.289
a,526305,0.000,0.000,36.000,0.000,1.978,-0.155,0.140,0.142,0.183,9.855,0.260
a,526310,0.000,0.000,36.000,0.000,1.978,0.120,0.140,-0.102,0.181,9.872,0.254
a,526314,0.000,0.000,36.000,0.000,1.978,0.120,0.186,-0.163,0.165,9.876,0.225
a,526318,0.000,0.000,36.000,0.000,1.978,-0.048,0.323,0.783,0.172,9.898,0.221
a,526321,0.000,0.000,36.000,0.000,2.021,-0.124,-0.135,-0.530,0.188,9.926,0.247
a,526325,0.000,0.000,36.000,0.000,2.065,-0.017,0.064,-0.545,0.181,9.872,0.242
a,526329,0.000,0.000,36.000,0.000,1.934,-0.124,-0.196,-0.469,0.176,9.864,0.271
a,526333,0.000,0.000,36.000,0.000,1.978,0.105,0.140,-1.034,0.180,9.888,0.229
a,526337,0.000,0.000,36.000,0.000,1.978,-0.216,0.140,-0.041,0.188,9.850,0.265
a,526341,0.000,0.000,36.000,0.000,1.978,-0.109,-0.043,0.798,0.183,9.849,0.248
a,526345,0.000,0.000,36.000,0.000,1.978,-0.048,-0.241,-0.148,0.157,9.896,0.248
a,526349,0.000,0.000,36.000,0.000,1.934,-0.109,0.033,0.142,0.168,9.884,0.250
a,526353,0.000,0.000,36.000,0.000,2.021,-0.048,0.049,0.417,0.189,9.867,0.262
a,526357,0.000,0.000,36.000,0.000,1.978,0.151,-0.135,-0.698,0.164,9.886,0.269
a,526361,0.000,0.000,36.000,0.000,2.021,-0.063,0.186,-0.469,0.186,9.878,0.244
a,526365,0.000,0.000,36.000,0.000,2.021,0.166,0.247,-0.392,0.170,9.884,0.233
a,526369,0.000,0.000,36.000,0.000,1.978,0.013,-0.226,0.310,0.201,9.877,0.207
a,526373,0.000,0.000,36.000,0.000,1.890,-0.063,-0.074,-1.553,0.176,9.867,0.250
a,526377,0.000,0.000,36.000,0.000,2.021,0.074,0.064,1.485,0.154,9.874,0.275
a,526382,0.000,0.000,36.000,0.000,2.021,-0.032,-0.012,1.119,0.160,9.859,0.244
a,526385,0.000,0.000,36.000,0.000,2.021,0.013,0.079,0.142,0.195,9.869,0.260
a,526389,0.000,0.000,36.000,0.000,2.021,0.059,0.155,-0.057,0.168,9.917,0.231
a,526393,0.000,0.000,36.000,0.000,1.978,0.120,-0.028,-0.057,0.157,9.877,0.254
a,526398,0.000,0.000,36.000,0.000,2.021,-0.155,-0.012,0.310,0.165,9.888,0.250
a,526402,0.000,0.000,36.000,0.000,1.934,0.120,-0.119,0.676,0.199,9.850,0.249
a,526406,0.000,0.000,36.000,0.000,2.021,0.044,0.079,-0.973,0.170,9.880,0.235
a,526409,0.000,0.000,36.000,0.000,2.065,-0.155,-0.196,-0.362,0.186,9.868,0.272
a,526413,0.000,0.000,36.000,0.000,1.978,-0.109,0.033,0.249,0.168,9.869,0.257
a,526417,0.000,0.000,36.000,0.000,1.978,0.105,-0.135,-0.973,0.163,9.871,0.260
a,526422,0.000,0.000,36.000,0.000,1.978,0.334,-0.028,0.081,0.178,9.832,0.247
a,526426,0.000,0.000,36.000,0.000,1.978,0.227,0.033,-0.377,0.180,9.857,0.253
a,526429,0.000,0.000,36.000,0.000,1.978,-0.048,-0.196,-0.041,0.178,9.883,0.267
a,526434,0.000,0.000,36.000,0.000,1.978,0.044,-0.074,-0.484,0.183,9.888,0.250
a,526437,0.000,0.000,36.000,0.000,1.934,-0.261,0.140,0.203,0.189,9.905,0.241
a,526441,0.000,0.000,36.000,0.000,2.021,0.013,-0.135,-0.255,0.189,9.894,0.225
a,526445,0.000,0.000,36.000,0.000,1.978,-0.048,0.033,-0.194,0.195,9.888,0.281
a,526449,0.000,0.000,36.000,0.000,1.978,0.059,0.247,-0.179,0.181,9.877,0.239
a,526453,0.000,0.000,36.000,0.000,1.978,0.120,-0.135,0.127,0.199,9.870,0.272
a,526457,0.000,0.000,36.000,0.000,2.021,-0.139,-0.028,0.600,0.183,9.880,0.265
a,526461,0.000,0.000,36.000,0.000,2.021,0.227,0.140,0.081,0.189,9.878,0.259
a,526465,0.000,0.000,36.000,0.000,1.978,0.227,0.155,-0.057,0.198,9.896,0.235
a,526469,0.000,0.000,36.000,0.000,2.021,-0.048,0.094,0.524,0.180,9.887,0.250
a,526474,0.000,0.000,36.000,0.000,1.978,0.013,-0.119,0.692,0.189,9.875,0.250
a,526477,0.000,0.000,36.000,0.000,1.978,0.013,-0.119,0.310,0.170,9.894,0.242
a,526481,0.000,0.000,36.000,0.000,1.978,0.212,-0.196,-0.484,0.188,9.884,0.249
a,526485,0.000,0.000,36.000,0.000,2.021,0.059,-0.074,-0.209,0.192,9.917,0.242
a,526489,0.000,0.000,36.000,0.000,1.978,0.105,-0.180,-1.247,0.176,9.849,0.266
a,526493,0.000,0.000,36.000,0.000,1.978,-0.063,0.049,0.188,0.176,9.839,0.257
a,526497,0.000,0.000,36.000,0.000,1.978,0.013,0.155,0.524,0.183,9.867,0.272
a,526502,0.000,0.000,36.000,0.000,1.978,-0.048,0.278,1.531,0.183,9.875,0.256
a,526505,0.000,0.000,36.000,0.000,1.978,-0.109,0.186,-0.194,0.152,9.869,0.279
a,526509,0.000,0.000,36.000,0.000,1.978,-0.063,0.033,-0.469,0.172,9.880,0.236
a,526513,0.000,0.000,36.000,0.000,2.021,0.120,-0.058,0.340,0.183,9.896,0.249
a,526517,0.000,0.000,36.000,0.000,1.978,-0.048,-0.028,-0.194,0.168,9.905,0.238
a,526522,0.000,0.000,36.000,0.000,2.021,-0.002,-0.028,-0.744,0.181,9.894,0.267
a,526526,0.000,0.000,36.000,0.000,2.021,-0.063,-0.012,-0.469,0.181,9.837,0.256
a,526529,0.000,0.000,36.000,0.000,2.021,-0.155,-0.287,0.524,0.157,9.870,0.243
a,526534,0.000,0.000,36.000,0.000,1.978,0.059,-0.028,0.233,0.178,9.876,0.266
a,526537,0.000,0.000,36.000,0.000,1.978,-0.155,-0.074,-0.255,0.192,9.869,0.259
a,526541,0.000,0.000,36.000,0.000,1.978,-0.216,0.064,0.478,0.181,9.863,0.257
a,526546,0.000,0.000,36.000,0.000,1.978,0.059,-0.074,0.188,0.168,9.880,0.227
a,526550,0.000,0.000,36.000,0.000,1.978,-0.032,0.018,0.157,0.186,9.880,0.231
a,526554,0.000,0.000,36.000,0.000,1.978,0.105,0.033,-0.927,0.180,9.882,0.268
a,526557,0.000,0.000,36.000,0.000,2.021,-0.032,-0.196,0.493,0.189,9.845,0.253
a,526561,0.000,0.000,36.000,0.000,2.021,0.151,-0.135,-0.805,0.199,9.911,0.242
a,526565,0.000,0.000,36.000,0.000,2.021,0.059,0.140,-0.209,0.189,9.881,0.237
a,526569,0.000,0.000,36.000,0.000,2.021,0.120,-0.089,-0.637,0.181,9.890,0.250
a,526573,0.000,0.000,36.000,0.000,2.021,0.151,0.140,-1.247,0.163,9.912,0.226
a,526577,0.000,0.000,36.000,0.000,1.978,-0.032,0.094,1.073,0.183,9.901,0.221
a,526581,0.000,0.000,36.000,0.000,2.021,-0.155,-0.226,0.478,0.194,9.876,0.229
a,526586,0.000,0.000,36.000,0.000,1.978,-0.246,-0.074,0.539,0.172,9.843,0.242
a,526590,0.000,0.000,36.000,0.000,2.021,-0.048,0.003,0.630,0.183,9.858,0.267
a,526593,0.000,0.000,36.000,0.000,1.978,0.013,-0.119,-0.362,0.186,9.867,0.277
a,526597,0.000,0.000,36.000,0.000,1.978,0.258,0.003,0.661,0.168,9.884,0.267
a,526602,0.000,0.000,36.000,0.000,1.934,0.166,0.049,0.401,0.199,9.901,0.250
a,526605,0.000,0.000,36.000,0.000,1.978,0.120,-0.028,-0.102,0.152,9.916,0.229
a,526609,0.000,0.000,36.000,0.000,2.065,0.044,0.094,-0.316,0.199,9.899,0.232
a,526613,0.000,0.000,36.000,0.000,1.978,-0.231,-0.196,-1.446,0.163,9.883,0.225
a,526617,0.000,0.000,36.000,0.000,1.978,-0.170,-0.074,-1.064,0.176,9.863,0.272
a,526621,0.000,0.000,36.000,0.000,2.021,0.059,0.110,0.295,0.165,9.877,0.266
a,526625,0.000,0.000,36.000,0.000,1.978,0.059,-0.012,0.340,0.164,9.858,0.273
a,526629,0.000,0.000,36.000,0.000,1.934,0.013,0.033,-0.148,0.199,9.837,0.272
a,526633,0.000,0.000,36.000,0.000,1.978,0.258,-0.058,-1.079,0.192,9.900,0.272
a,526637,0.000,0.000,36.000,0.000,2.021,-0.002,0.186,-0.576,0.176,9.870,0.231
a,526641,0.000,0.000,36.000,0.000,1.978,0.013,0.033,0.203,0.189,9.900,0.256
a,526646,0.000,0.000,36.000,0.000,1.934,-0.063,-0.028,-0.408,0.186,9.901,0.237
a,526649,0.000,0.000,36.000,0.000,2.021,-0.109,0.033,-0.301,0.183,9.874,0.232
a,526653,0.000,0.000,36.000,0.000,1.978,-0.109,-0.074,-0.301,0.178,9.876,0.257
a,526657,0.000,0.000,36.000,0.000,1.978,0.059,-0.012,0.020,0.174,9.872,0.292
a,526661,0.000,0.000,36.000,0.000,1.978,-0.032,0.003,1.012,0.181,9.843,0.267
a,526665,0.000,0.000,36.000,0.000,2.065,0.227,-0.028,0.233,0.178,9.872,0.263
a,526669,0.000,0.000,36.000,0.000,2.021,0.212,-0.028,-0.759,0.181,9.914,0.235
a,526673,0.000,0.000,36.000,0.000,1.978,-0.048,0.140,0.249,0.170,9.877,0.243
a,526678,0.000,0.000,36.000,0.000,1.934,-0.155,-0.058,-0.148,0.178,9.900,0.241
a,526682,0.000,0.000,36.000,0.000,2.021,-0.322,-0.058,0.478,0.180,9.892,0.257
a,526685,0.000,0.000,36.000,0.000,1.978,-0.063,-0.028,-0.850,0.183,9.883,0.261
a,526689,0.000,0.000,36.000,0.000,1.978,-0.155,0.140,-0.301,0.192,9.851,0.260
a,526693,0.000,0.000,36.000,0.000,1.978,0.059,0.201,0.020,0.188,9.869,0.292
a,526698,0.000,0.000,36.000,0.000,1.978,-0.063,-0.012,-1.018,0.174,9.887,0.272
a,526702,0.000,0.000,36.000,0.000,2.021,-0.002,0.186,-0.683,0.168,9.871,0.247
a,526706,0.000,0.000,36.000,0.000,1.978,-0.155,0.079,0.203,0.186,9.872,0.257
a,526709,0.000,0.000,36.000,0.000,1.978,0.181,-0.012,0.890,0.194,9.877,0.235
a,526713,0.000,0.000,36.000,0.000,1.978,-0.063,0.094,-0.683,0.174,9.905,0.235
a,526717,0.000,0.000,36.000,0.000,2.065,0.105,0.094,-0.759,0.170,9.888,0.261
a,526721,0.000,0.000,36.000,0.000,1.978,-0.002,-0.074,-0.683,0.170,9.877,0.263
a,526726,0.000,0.000,36.000,0.000,1.890,0.044,-0.303,-0.484,0.211,9.877,0.273
a,526729,0.000,0.000,36.000,0.000,1.978,0.166,0.079,-0.377,0.180,9.876,0.263
a,526734,0.000,0.000,36.000,0.000,2.021,0.120,-0.119,0.401,0.198,9.881,0.256
a,526737,0.000,0.000,36.000,0.000,1.934,0.166,0.033,0.020,0.172,9.883,0.254
a,526741,0.000,0.000,36.000,0.000,1.934,0.166,-0.058,0.295,0.174,9.902,0.269
a,526745,0.000,0.000,36.000,0.000,1.978,-0.002,-0.058,-0.408,0.174,9.886,0.219
a,526749,0.000,0.000,36.000,0.000,1.978,0.212,-0.058,-0.484,0.172,9.857,0.237
a,526753,0.000,0.000,36.000,0.000,1.978,0.029,-0.180,0.966,0.158,9.862,0.244
a,526757,0.000,0.000,36.000,0.000,1.934,0.013,-0.074,0.142,0.168,9.857,0.253
a,526761,0.000,0.000,36.000,0.000,2.021,-0.048,0.155,0.478,0.180,9.847,0.256
a,526765,0.000,0.000,36.000,0.000,1.978,0.059,-0.043,0.508,0.194,9.845,0.247
a,526769,0.000,0.000,36.000,0.000,1.978,0.029,0.155,2.096,0.160,9.861,0.259
a,526773,0.000,0.000,36.000,0.000,1.890,0.059,-0.028,-0.377,0.174,9.865,0.256
a,526777,0.000,0.000,36.000,0.000,1.978,0.151,-0.303,-0.973,0.188,9.876,0.261
a,526781,0.000,0.000,36.000,0.000,2.021,0.074,-0.043,1.485,0.178,9.852,0.269
a,526786,0.000,0.000,36.000,0.000,1.978,-0.093,0.064,0.966,0.183,9.863,0.269
a,526789,0.000,0.000,36.000,0.000,1.978,-0.048,0.140,-0.362,0.145,9.869,0.261
a,526793,0.000,0.000,36.000,0.000,1.934,0.227,0.033,-0.270,0.183,9.901,0.253
a,526797,0.000,0.000,36.000,0.000,1.978,-0.017,0.064,-1.079,0.183,9.899,0.250
a,526801,0.000,0.000,36.000,0.000,2.021,-0.093,0.155,0.905,0.178,9.902,0.250
a,526805,0.000,0.000,36.000,0.000,1.978,-0.124,0.186,-0.789,0.183,9.880,0.229
a,526809,0.000,0.000,36.000,0.000,2.021,0.044,-0.135,-1.186,0.154,9.875,0.259
a,526813,0.000,0.000,36.000,0.000,2.065,-0.002,-0.058,-0.163,0.186,9.868,0.261
a,526817,0.000,0.000,36.000,0.000,2.021,-0.048,0.247,-0.057,0.188,9.857,0.254
a,526821,0.000,0.000,36.000,0.000,1.978,0.059,0.155,0.783,0.181,9.871,0.266
a,526825,0.000,0.000,36.000,0.000,2.021,0.044,-0.074,-0.484,0.181,9.856,0.272
a,526830,0.000,0.000,36.000,0.000,2.065,-0.063,-0.196,-1.232,0.199,9.850,0.229
a,526834,0.000,0.000,36.000,0.000,1.978,0.166,0.323,0.493,0.168,9.886,0.247
a,526837,0.000,0.000,36.000,0.000,1.978,-0.048,-0.180,0.844,0.170,9.871,0.254
a,526841,0.000,0.000,36.000,0.000,2.021,0.044,-0.074,-0.591,0.168,9.888,0.248
a,526845,0.000,0.000,36.000,0.000,1.978,0.120,0.110,0.936,0.198,9.890,0.263
a,526849,0.000,0.000,36.000,0.000,1.978,-0.124,-0.135,-0.683,0.174,9.875,0.272
a,526854,0.000,0.000,36.000,0.000,1.978,-0.139,-0.241,-1.889,0.186,9.888,0.235
a,526858,0.000,0.000,36.000,0.000,2.021,-0.200,0.094,1.287,0.147,9.849,0.289
a,526861,0.000,0.000,36.000,0.000,1.978,0.212,-0.241,-1.568,0.188,9.892,0.250
a,526865,0.000,0.000,36.000,0.000,1.934,0.105,-0.074,-0.866,0.189,9.883,0.266
a,526869,0.000,0.000,36.000,0.000,2.021,0.120,-0.135,-0.377,0.172,9.858,0.272
a,526873,0.000,0.000,36.000,0.000,2.021,-0.063,-0.165,0.295,0.172,9.874,0.254
a,526877,0.000,0.000,36.000,0.000,1.978,-0.002,-0.074,-0.576,0.188,9.878,0.268
a,526882,0.000,0.000,36.000,0.000,1.978,0.166,-0.196,-0.102,0.194,9.890,0.253
a,526885,0.000,0.000,36.000,0.000,1.890,-0.109,0.033,0.142,0.168,9.858,0.253
a,526890,0.000,0.000,36.000,0.000,2.021,0.166,-0.196,-0.057,0.186,9.886,0.244
a,526894,0.000,0.000,36.000,0.000,2.021,-0.063,0.033,-0.850,0.172,9.887,0.260
a,526897,0.000,0.000,36.000,0.000,2.021,0.120,0.201,-0.209,0.154,9.906,0.256
a,526901,0.000,0.000,36.000,0.000,1.978,0.013,-0.028,0.142,0.194,9.872,0.242
a,526905,0.000,0.000,36.000,0.000,1.934,0.044,-0.196,-0.698,0.178,9.872,0.242
a,526909,0.000,0.000,36.000,0.000,2.021,0.059,-0.135,0.020,0.164,9.851,0.242
a,526913,0.000,0.000,36.000,0.000,1.978,0.044,-0.135,-1.186,0.189,9.867,0.237
a,526917,0.000,0.000,36.000,0.000,1.978,-0.155,-0.226,-0.255,0.178,9.914,0.253
a,526921,0.000,0.000,36.000,0.000,2.021,-0.048,0.003,0.692,0.181,9.898,0.257
a,526925,0.000,0.000,36.000,0.000,1.978,0.074,-0.058,0.890,0.170,9.858,0.247
a,526929,0.000,0.000,36.000,0.000,1.978,0.166,0.155,0.401,0.195,9.858,0.249
a,526933,0.000,0.000,36.000,0.000,1.978,-0.109,-0.058,-0.301,0.198,9.877,0.238
a,526937,0.000,0.000,36.000,0.000,2.065,0.044,0.003,0.401,0.172,9.889,0.238
a,526942,0.000,0.000,36.000,0.000,2.021,0.059,-0.135,-0.057,0.178,9.898,0.273
a,526945,0.000,0.000,36.000,0.000,1.978,0.166,0.033,0.127,0.170,9.878,0.260
a,526949,0.000,0.000,36.000,0.000,2.021,0.013,0.155,0.203,0.180,9.863,0.253
a,526953,0.000,0.000,36.000,0.000,2.065,0.120,-0.226,0.233,0.158,9.869,0.272
a,526957,0.000,0.000,36.000,0.000,1.934,0.120,0.018,-0.576,0.186,9.887,0.266
a,526961,0.000,0.000,36.000,0.000,1.978,0.013,-0.028,-0.148,0.186,9.874,0.237
a,526965,0.000,0.000,36.000,0.000,2.021,0.120,-0.196,-0.057,0.174,9.863,0.253
a,526969,0.000,0.000,36.000,0.000,1.934,0.013,-0.028,0.203,0.181,9.861,0.255
a,526974,0.000,0.000,36.000,0.000,2.021,0.120,0.186,0.081,0.181,9.890,0.241
a,526978,0.000,0.000,36.000,0.000,1.978,0.120,0.140,0.081,0.150,9.887,0.262
a,526981,0.000,0.000,36.000,0.000,1.978,-0.048,-0.058,0.356,0.172,9.880,0.254
a,526985,0.000,0.000,36.000,0.000,2.065,0.059,0.049,-0.057,0.199,9.901,0.254
a,526990,0.000,0.000,36.000,0.000,1.934,0.227,-0.119,0.676,0.188,9.892,0.272
a,526993,0.000,0.000,36.000,0.000,2.021,0.151,0.033,-0.866,0.181,9.880,0.273
a,526998,0.000,0.000,36.000,0.000,2.065,0.013,0.186,0.142,0.189,9.868,0.268
a,527002,0.000,0.000,36.000,0.000,2.021,-0.109,0.079,-0.301,0.163,9.872,0.235
a,527005,0.000,0.000,36.000,0.000,2.021,0.136,-0.180,0.997,0.148,9.865,0.272
a,527009,0.000,0.000,36.000,0.000,1.978,-0.124,0.079,-0.469,0.164,9.880,0.242
a,527013,0.000,0.000,36.000,0.000,2.021,0.044,-0.135,-0.805,0.192,9.865,0.250
a,527017,0.000,0.000,36.000,0.000,2.021,-0.170,-0.028,-1.064,0.168,9.844,0.260
a,527022,0.000,0.000,36.000,0.000,1.934,0.319,-0.028,-1.415,0.183,9.855,0.248
a,527026,0.000,0.000,36.000,0.000,1.978,-0.002,0.033,-1.232,0.188,9.849,0.257
a,527029,0.000,0.000,36.000,0.000,1.978,0.181,-0.012,0.890,0.194,9.880,0.248
a,527034,0.000,0.000,36.000,0.000,1.978,0.120,-0.028,-0.209,0.170,9.864,0.236
a,527037,0.000,0.000,36.000,0.000,2.021,-0.109,0.155,0.310,0.176,9.913,0.249
a,527041,0.000,0.000,36.000,0.000,2.065,0.074,-0.104,0.890,0.172,9.892,0.238
a,527045,0.000,0.000,36.000,0.000,2.021,0.120,-0.119,0.783,0.172,9.894,0.231
a,527049,0.000,0.000,36.000,0.000,1.978,-0.109,0.201,0.844,0.170,9.883,0.265
a,527053,0.000,0.000,36.000,0.000,2.021,0.105,-0.012,-0.484,0.192,9.874,0.261
a,527057,0.000,0.000,36.000,0.000,1.978,0.334,0.033,0.188,0.176,9.849,0.259
a,527061,0.000,0.000,36.000,0.000,1.978,0.151,0.033,-0.545,0.183,9.898,0.266
a,527065,0.000,0.000,36.000,0.000,1.978,0.044,-0.028,-0.423,0.181,9.865,0.247
a,527069,0.000,0.000,36.000,0.000,2.021,0.151,-0.241,-0.805,0.163,9.875,0.249
a,527073,0.000,0.000,36.000,0.000,1.934,0.212,-0.241,-1.034,0.181,9.899,0.242
a,527077,0.000,0.000,36.000,0.000,1.934,-0.032,-0.226,1.348,0.186,9.887,0.256
a,527082,0.000,0.000,36.000,0.000,1.978,-0.048,-0.012,0.585,0.172,9.870,0.224
a,527085,0.000,0.000,36.000,0.000,1.978,0.013,-0.058,0.585,0.168,9.922,0.237
a,527089,0.000,0.000,36.000,0.000,1.934,-0.048,0.049,0.310,0.186,9.906,0.229
a,527093,0.000,0.000,36.000,0.000,1.978,0.074,-0.058,1.272,0.181,9.892,0.244
a,527097,0.000,0.000,36.000,0.000,1.978,-0.155,0.155,0.585,0.205,9.883,0.253
a,527101,0.000,0.000,36.000,0.000,1.978,0.105,0.033,-0.698,0.176,9.889,0.256
a,527105,0.000,0.000,36.000,0.000,2.021,0.120,-0.241,-0.163,0.180,9.874,0.261
a,527109,0.000,0.000,36.000,0.000,2.021,-0.002,0.186,-0.408,0.157,9.920,0.262
a,527113,0.000,0.000,36.000,0.000,1.934,0.013,-0.119,-0.362,0.183,9.890,0.219
a,527117,0.000,0.000,36.000,0.000,1.978,0.151,0.140,-0.545,0.168,9.872,0.281
a,527121,0.000,0.000,36.000,0.000,1.978,-0.002,0.079,-0.530,0.189,9.893,0.247
a,527126,0.000,0.000,36.000,0.000,2.021,0.013,0.201,0.585,0.198,9.901,0.224
a,527129,0.000,0.000,36.000,0.000,1.934,0.120,0.033,-0.057,0.183,9.894,0.261
a,527133,0.000,0.000,36.000,0.000,1.934,-0.063,0.171,0.295,0.209,9.870,0.256
a,527137,0.000,0.000,36.000,0.000,1.934,-0.170,-0.043,0.615,0.165,9.862,0.263
a,527141,0.000,0.000,36.000,0.000,2.021,0.013,0.033,0.035,0.176,9.887,0.260
a,527146,0.000,0.000,36.000,0.000,2.021,-0.109,-0.074,-0.087,0.192,9.877,0.249
a,527150,0.000,0.000,36.000,0.000,1.978,0.059,0.079,0.233,0.199,9.902,0.247
a,527153,0.000,0.000,36.000,0.000,1.978,0.120,0.049,-0.316,0.189,9.900,0.260
a,527157,0.000,0.000,36.000,0.000,1.978,0.013,0.171,0.524,0.188,9.888,0.237
a,527161,0.000,0.000,36.000,0.000,1.978,0.166,0.094,0.401,0.194,9.881,0.265
a,527165,0.000,0.000,36.000,0.000,1.934,-0.109,-0.012,0.630,0.168,9.861,0.266
a,527169,0.000,0.000,36.000,0.000,1.978,-0.109,-0.028,0.096,0.199,9.875,0.237
a,527173,0.000,0.000,36.000,0.000,1.978,-0.063,0.079,-0.408,0.189,9.883,0.247
a,527178,0.000,0.000,36.000,0.000,1.934,0.059,-0.135,-0.057,0.183,9.892,0.260
a,527181,0.000,0.000,36.000,0.000,1.978,0.029,0.155,1.455,0.176,9.888,0.261
a,527186,0.000,0.000,36.000,0.000,2.021,-0.170,-0.028,-1.446,0.180,9.861,0.268
a,527189,0.000,0.000,36.000,0.000,1.978,-0.155,0.247,0.081,0.163,9.876,0.250
a,527193,0.000,0.000,36.000,0.000,1.978,0.013,-0.074,0.249,0.163,9.863,0.250
a,527197,0.000,0.000,36.000,0.000,1.934,-0.109,-0.180,0.630,0.172,9.877,0.273
a,527201,0.000,0.000,36.000,0.000,1.978,-0.109,-0.180,-0.255,0.198,9.887,0.260
a,527205,0.000,0.000,36.000,0.000,1.978,-0.216,0.140,0.249,0.180,9.877,0.247
a,527209,0.000,0.000,36.000,0.000,1.978,-0.032,0.262,0.890,0.164,9.863,0.253
a,527213,0.000,0.000,36.000,0.000,1.890,0.029,0.262,1.165,0.176,9.867,0.244
a,527217,0.000,0.000,36.000,0.000,2.021,-0.170,-0.028,-0.469,0.183,9.877,0.244
a,527221,0.000,0.000,36.000,0.000,2.021,-0.124,-0.058,-0.576,0.194,9.876,0.247
a,527225,0.000,0.000,36.000,0.000,1.978,-0.048,0.155,0.478,0.192,9.901,0.226
a,527229,0.000,0.000,36.000,0.000,2.021,-0.124,-0.135,-0.469,0.201,9.877,0.269
a,527233,0.000,0.000,36.000,0.000,1.978,0.105,0.140,-0.423,0.186,9.862,0.238
a,527238,0.000,0.000,36.000,0.000,1.978,0.105,-0.180,-0.698,0.192,9.863,0.256
a,527241,0.000,0.000,36.000,0.000,1.978,0.013,0.110,0.630,0.163,9.869,0.277
a,527245,0.000,0.000,36.000,0.000,1.978,0.105,-0.196,-1.079,0.181,9.864,0.260
a,527249,0.000,0.000,36.000,0.000,1.978,0.181,0.049,1.165,0.204,9.898,0.267
a,527253,0.000,0.000,36.000,0.000,2.021,-0.048,-0.012,0.310,0.180,9.880,0.248
a,527257,0.000,0.000,36.000,0.000,1.978,-0.093,0.262,0.997,0.176,9.884,0.239
a,527261,0.000,0.000,36.000,0.000,1.978,0.151,0.094,-0.591,0.160,9.902,0.250
a,527265,0.000,0.000,36.000,0.000,1.978,0.059,-0.074,0.127,0.174,9.876,0.260
a,527269,0.000,0.000,36.000,0.000,1.978,0.273,-0.012,0.295,0.181,9.865,0.269
a,527274,0.000,0.000,36.000,0.000,1.978,-0.048,-0.028,0.203,0.178,9.867,0.233
a,527278,0.000,0.000,36.000,0.000,1.934,-0.002,-0.180,-1.446,0.157,9.911,0.250
a,527281,0.000,0.000,36.000,0.000,2.021,-0.048,-0.012,0.035,0.186,9.845,0.225
a,527285,0.000,0.000,36.000,0.000,1.978,-0.155,0.033,0.142,0.168,9.876,0.250
a,527289,0.000,0.000,36.000,0.000,1.934,-0.002,-0.180,-1.125,0.160,9.871,0.272
a,527293,0.000,0.000,36.000,0.000,1.978,-0.048,-0.028,0.249,0.163,9.857,0.267
a,527298,0.000,0.000,36.000,0.000,1.978,-0.185,-0.058,-1.293,0.189,9.861,0.272
a,527302,0.000,0.000,36.000,0.000,1.978,-0.002,0.247,-0.484,0.201,9.892,0.272
a,527305,0.000,0.000,36.000,0.000,1.978,0.273,-0.135,-0.163,0.188,9.886,0.261
a,527309,0.000,0.000,36.000,0.000,2.021,0.029,0.049,1.012,0.204,9.892,0.237
a,527313,0.000,0.000,36.000,0.000,2.021,-0.002,-0.028,-1.553,0.183,9.901,0.209
a,527317,0.000,0.000,36.000,0.000,1.978,-0.124,0.201,-0.530,0.176,9.887,0.231
a,527321,0.000,0.000,36.000,0.000,1.978,-0.124,-0.241,-0.683,0.157,9.862,0.235
a,527325,0.000,0.000,36.000,0.000,1.978,-0.124,0.033,-0.850,0.168,9.883,0.254
a,527330,0.000,0.000,36.000,0.000,1.978,0.013,-0.074,-0.087,0.163,9.810,0.268
a,527333,0.000,0.000,36.000,0.000,1.934,-0.109,-0.028,-0.041,0.207,9.855,0.323
a,527338,0.000,0.000,36.000,0.000,2.021,0.242,-0.058,-0.438,0.186,9.890,0.279
a,527341,0.000,0.000,36.000,0.000,2.021,0.136,-0.028,0.798,0.198,9.880,0.227
a,527345,0.000,0.000,36.000,0.000,2.021,0.166,0.155,0.295,0.180,9.900,0.196
a,527349,0.000,0.000,36.000,0.000,2.021,-0.216,0.140,-0.362,0.195,9.896,0.238
a,527353,0.000,0.000,36.000,0.000,1.978,-0.032,-0.196,0.539,0.174,9.882,0.224
a,527357,0.000,0.000,36.000,0.000,1.934,-0.322,0.217,0.310,0.158,9.852,0.256
a,527361,0.000,0.000,36.000,0.000,1.978,-0.109,-0.180,0.356,0.198,9.888,0.256
a,527365,0.000,0.000,36.000,0.000,1.978,0.059,0.079,-0.102,0.199,9.829,0.272
a,527369,0.000,0.000,36.000,0.000,1.934,0.166,-0.028,0.081,0.152,9.849,0.272
a,527373,0.000,0.000,36.000,0.000,1.978,0.059,0.094,-0.270,0.174,9.863,0.254
a,527377,0.000,0.000,36.000,0.000,1.978,-0.063,0.049,-0.377,0.172,9.875,0.217
a,527381,0.000,0.000,36.000,0.000,2.021,-0.216,0.033,-0.041,0.180,9.887,0.229
a,527385,0.000,0.000,36.000,0.000,1.978,-0.155,0.064,0.844,0.160,9.906,0.261
a,527390,0.000,0.000,36.000,0.000,2.021,-0.063,-0.196,-1.278,0.205,9.868,0.249
a,527393,0.000,0.000,36.000,0.000,1.978,0.059,0.171,0.783,0.168,9.883,0.263
a,527397,0.000,0.000,36.000,0.000,1.890,-0.048,0.079,0.249,0.195,9.874,0.244
a,527401,0.000,0.000,36.000,0.000,2.021,-0.109,-0.241,0.249,0.194,9.888,0.254
a,527405,0.000,0.000,36.000,0.000,2.021,-0.048,-0.119,0.035,0.160,9.892,0.241
a,527409,0.000,0.000,36.000,0.000,1.934,-0.155,0.079,0.203,0.176,9.843,0.227
a,527413,0.000,0.000,36.000,0.000,1.978,-0.048,0.094,0.035,0.214,9.888,0.250
a,527417,0.000,0.000,36.000,0.000,1.978,-0.155,0.155,0.310,0.183,9.904,0.268
a,527422,0.000,0.000,36.000,0.000,1.978,-0.155,0.094,0.310,0.183,9.883,0.271
a,527426,0.000,0.000,36.000,0.000,1.978,-0.048,0.064,0.585,0.180,9.844,0.247
a,527429,0.000,0.000,36.000,0.000,1.978,-0.231,-0.119,-1.171,0.186,9.867,0.257
a,527433,0.000,0.000,36.000,0.000,2.021,-0.231,0.079,-0.850,0.178,9.869,0.253
a,527437,0.000,0.000,36.000,0.000,2.021,0.151,-0.074,-0.545,0.180,9.896,0.256
a,527441,0.000,0.000,36.000,0.000,1.978,-0.093,-0.196,0.753,0.198,9.872,0.242
a,527446,0.000,0.000,36.000,0.000,2.021,-0.231,-0.074,-1.125,0.192,9.883,0.242
a,527450,0.000,0.000,36.000,0.000,1.978,0.013,-0.119,0.142,0.165,9.881,0.272
a,527453,0.000,0.000,36.000,0.000,2.021,0.136,-0.028,0.798,0.180,9.874,0.256
a,527457,0.000,0.000,36.000,0.000,1.978,-0.048,-0.028,-0.148,0.174,9.853,0.244
a,527461,0.000,0.000,36.000,0.000,1.934,-0.093,0.171,1.226,0.183,9.871,0.256
a,527465,0.000,0.000,36.000,0.000,2.021,-0.002,-0.303,-1.278,0.195,9.871,0.237
a,527469,0.000,0.000,36.000,0.000,2.021,-0.002,-0.074,-0.469,0.163,9.900,0.231
a,527474,0.000,0.000,36.000,0.000,1.934,-0.338,0.033,-0.744,0.172,9.867,0.260
a,527477,0.000,0.000,36.000,0.000,1.978,-0.063,-0.028,-0.576,0.174,9.847,0.275
a,527482,0.000,0.000,36.000,0.000,1.978,0.029,-0.043,1.714,0.195,9.869,0.275
a,527485,0.000,0.000,36.000,0.000,1.978,0.074,0.262,0.982,0.181,9.863,0.257
a,527489,0.000,0.000,36.000,0.000,1.978,-0.109,0.049,0.798,0.204,9.840,0.244
a,527493,0.000,0.000,36.000,0.000,2.021,-0.002,-0.135,-0.957,0.199,9.867,0.261
a,527497,0.000,0.000,36.000,0.000,2.021,0.044,-0.135,-1.354,0.172,9.875,0.268
a,527501,0.000,0.000,36.000,0.000,2.021,0.120,0.094,0.569,0.181,9.876,0.250
a,527505,0.000,0.000,36.000,0.000,1.978,-0.048,0.049,0.478,0.165,9.907,0.221
a,527509,0.000,0.000,36.000,0.000,2.021,-0.109,-0.135,0.249,0.168,9.859,0.241
a,527513,0.000,0.000,36.000,0.000,1.978,0.151,-0.135,-0.698,0.186,9.882,0.247
a,527517,0.000,0.000,36.000,0.000,2.065,0.044,-0.119,-0.698,0.181,9.837,0.273
a,527521,0.000,0.000,36.000,0.000,1.978,0.059,0.262,0.325,0.164,9.883,0.257
a,527525,0.000,0.000,36.000,0.000,2.065,-0.200,0.262,1.333,0.157,9.869,0.247
a,527529,0.000,0.000,36.000,0.000,1.978,0.074,-0.211,0.951,0.174,9.858,0.231
a,527534,0.000,0.000,36.000,0.000,1.978,0.059,0.155,0.340,0.178,9.865,0.248
a,527537,0.000,0.000,36.000,0.000,2.021,0.151,-0.074,-0.805,0.195,9.894,0.231
a,527541,0.000,0.000,36.000,0.000,2.021,0.059,-0.028,-0.102,0.176,9.889,0.250
a,527545,0.000,0.000,36.000,0.000,1.978,0.013,-0.135,-0.255,0.188,9.902,0.254
a,527549,0.000,0.000,36.000,0.000,1.978,-0.109,0.064,0.798,0.186,9.920,0.250
a,527553,0.000,0.000,36.000,0.000,1.978,-0.002,0.186,-0.637,0.170,9.890,0.250
a,527557,0.000,0.000,36.000,0.000,1.978,-0.155,-0.180,0.798,0.178,9.875,0.249
a,527561,0.000,0.000,36.000,0.000,1.978,-0.277,-0.241,-0.576,0.164,9.887,0.261
a,527565,0.000,0.000,36.000,0.000,2.021,0.013,-0.058,0.310,0.194,9.864,0.275
a,527569,0.000,0.000,36.000,0.000,2.021,0.059,-0.226,0.462,0.174,9.851,0.279
a,527573,0.000,0.000,36.000,0.000,2.021,0.074,0.094,0.890,0.170,9.849,0.265
a,527578,0.000,0.000,36.000,0.000,2.065,0.273,-0.180,0.462,0.176,9.844,0.253
a,527582,0.000,0.000,36.000,0.000,1.934,0.105,0.155,-0.423,0.160,9.880,0.247
a,527585,0.000,0.000,36.000,0.000,1.978,-0.109,0.049,0.737,0.186,9.911,0.239
a,527589,0.000,0.000,36.000,0.000,1.978,0.120,0.110,0.676,0.172,9.902,0.232
a,527593,0.000,0.000,36.000,0.000,1.978,-0.155,-0.028,-0.362,0.192,9.886,0.244
a,527597,0.000,0.000,36.000,0.000,2.021,-0.063,0.079,-0.912,0.172,9.894,0.266
a,527601,0.000,0.000,36.000,0.000,1.978,0.059,-0.058,0.295,0.172,9.887,0.268
a,527606,0.000,0.000,36.000,0.000,2.021,-0.017,-0.012,-0.759,0.192,9.878,0.277
a,527610,0.000,0.000,36.000,0.000,2.065,-0.032,-0.119,0.905,0.154,9.862,0.256
a,527613,0.000,0.000,36.000,0.000,2.021,0.273,-0.074,-0.270,0.178,9.872,0.262
a,527617,0.000,0.000,36.000,0.000,1.978,0.105,0.308,-0.499,0.192,9.869,0.241
a,527621,0.000,0.000,36.000,0.000,1.934,0.151,-0.196,-0.759,0.178,9.852,0.256
a,527626,0.000,0.000,36.000,0.000,2.021,-0.063,-0.028,-0.408,0.181,9.890,0.248
a,527630,0.000,0.000,36.000,0.000,1.978,-0.170,-0.074,-0.576,0.168,9.892,0.244
a,527633,0.000,0.000,36.000,0.000,2.021,0.166,0.186,-0.057,0.181,9.878,0.249
a,527638,0.000,0.000,36.000,0.000,2.065,-0.109,0.094,0.310,0.168,9.912,0.267
a,527641,0.000,0.000,36.000,0.000,2.021,0.013,0.155,0.035,0.181,9.851,0.257
a,527645,0.000,0.000,36.000,0.000,2.021,-0.155,0.155,0.310,0.147,9.899,0.244
a,527649,0.000,0.000,36.000,0.000,2.021,-0.048,-0.058,0.630,0.142,9.883,0.253
a,527653,0.000,0.000,36.000,0.000,1.978,-0.231,0.049,-0.637,0.170,9.905,0.253
a,527657,0.000,0.000,36.000,0.000,1.978,0.151,-0.119,-0.545,0.174,9.881,0.257
a,527661,0.000,0.000,36.000,0.000,1.978,0.029,0.018,-1.950,0.199,9.871,0.261
a,527665,0.000,0.000,36.000,0.000,1.934,0.105,-0.043,0.768,0.165,9.871,0.256
a,527669,0.000,0.000,36.000,0.000,1.934,0.166,0.094,0.462,0.170,9.899,0.259
a,527673,0.000,0.000,36.000,0.000,2.021,0.059,-0.058,0.233,0.152,9.881,0.213
a,527677,0.000,0.000,36.000,0.000,1.978,0.120,0.247,0.111,0.164,9.856,0.211
a,527681,0.000,0.000,36.000,0.000,1.934,-0.048,-0.074,-0.087,0.170,9.883,0.235
a,527686,0.000,0.000,36.000,0.000,1.978,0.013,-0.074,-0.301,0.194,9.888,0.244
a,527690,0.000,0.000,36.000,0.000,1.934,0.120,0.247,0.111,0.186,9.876,0.260
a,527693,0.000,0.000,36.000,0.000,2.021,0.059,-0.028,0.233,0.168,9.901,0.250
a,527697,0.000,0.000,36.000,0.000,1.978,0.059,-0.196,-0.102,0.183,9.858,0.255
a,527701,0.000,0.000,36.000,0.000,1.978,0.044,0.140,-0.484,0.152,9.877,0.266
a,527705,0.000,0.000,36.000,0.000,1.978,0.059,-0.028,-0.163,0.183,9.886,0.263
a,527709,0.000,0.000,36.000,0.000,1.978,0.059,0.186,-0.057,0.139,9.892,0.257
a,527713,0.000,0.000,36.000,0.000,1.978,-0.002,0.094,-1.232,0.164,9.874,0.241
a,527717,0.000,0.000,36.000,0.000,2.021,0.105,-0.012,-0.698,0.181,9.874,0.256
a,527721,0.000,0.000,36.000,0.000,1.978,-0.124,-0.028,-0.683,0.194,9.884,0.272
a,527725,0.000,0.000,36.000,0.000,2.021,0.013,0.094,0.844,0.178,9.887,0.278
a,527729,0.000,0.000,36.000,0.000,1.978,0.120,-0.028,0.233,0.194,9.875,0.247
a,527734,0.000,0.000,36.000,0.000,1.978,-0.048,0.186,0.203,0.154,9.881,0.227
a,527738,0.000,0.000,36.000,0.000,1.978,0.151,-0.028,-0.591,0.163,9.906,0.226
a,527741,0.000,0.000,36.000,0.000,1.934,-0.155,-0.226,-0.194,0.204,9.912,0.221
a,527745,0.000,0.000,36.000,0.000,2.021,-0.216,0.079,1.379,0.164,9.875,0.253
a,527749,0.000,0.000,36.000,0.000,2.065,-0.109,0.033,-0.087,0.163,9.859,0.267
a,527753,0.000,0.000,36.000,0.000,2.021,0.288,-0.058,1.592,0.199,9.869,0.261
a,527757,0.000,0.000,36.000,0.000,1.978,-0.048,-0.119,0.737,0.181,9.875,0.273
a,527762,0.000,0.000,36.000,0.000,2.021,0.227,-0.287,0.508,0.183,9.867,0.262
a,527766,0.000,0.000,36.000,0.000,1.978,-0.109,0.003,0.478,0.186,9.894,0.213
a,527769,0.000,0.000,36.000,0.000,1.978,-0.048,0.079,0.142,0.180,9.890,0.221
a,527774,0.000,0.000,36.000,0.000,1.978,-0.124,0.140,-0.530,0.178,9.896,0.254
a,527778,0.000,0.000,36.000,0.000,1.978,-0.109,-0.012,0.035,0.195,9.883,0.247
a,527782,0.000,0.000,36.000,0.000,2.021,0.044,-0.196,-0.652,0.195,9.871,0.249
a,527785,0.000,0.000,36.000,0.000,1.978,-0.048,0.064,0.478,0.194,9.863,0.263
a,527789,0.000,0.000,36.000,0.000,1.978,0.166,-0.028,-0.377,0.165,9.880,0.241
a,527793,0.000,0.000,36.000,0.000,2.065,-0.048,-0.058,0.035,0.160,9.894,0.232
a,527797,0.000,0.000,36.000,0.000,1.978,-0.124,-0.196,-0.637,0.178,9.888,0.213
a,527801,0.000,0.000,36.000,0.000,1.978,-0.170,0.094,-0.469,0.163,9.883,0.253
a,527805,0.000,0.000,36.000,0.000,2.021,-0.277,0.033,-0.530,0.181,9.850,0.256
a,527809,0.000,0.000,36.000,0.000,1.934,-0.170,-0.028,-0.576,0.183,9.863,0.273
a,527813,0.000,0.000,36.000,0.000,1.934,0.181,-0.180,1.272,0.195,9.863,0.290
a,527817,0.000,0.000,36.000,0.000,1.934,0.120,0.079,-0.209,0.199,9.864,0.262
a,527821,0.000,0.000,36.000,0.000,1.934,0.059,0.140,0.081,0.168,9.872,0.231
a,527825,0.000,0.000,36.000,0.000,1.978,0.044,-0.074,-0.423,0.183,9.912,0.237
a,527830,0.000,0.000,36.000,0.000,2.021,-0.109,0.049,0.524,0.168,9.890,0.237
a,527833,0.000,0.000,36.000,0.000,1.978,-0.002,0.079,-0.957,0.164,9.908,0.266
a,527837,0.000,0.000,36.000,0.000,1.978,0.059,-0.180,0.401,0.178,9.898,0.244
a,527841,0.000,0.000,36.000,0.000,2.021,0.120,0.033,-0.270,0.172,9.880,0.237
a,527845,0.000,0.000,36.000,0.000,1.978,0.013,0.201,0.417,0.170,9.846,0.247
a,527849,0.000,0.000,36.000,0.000,1.978,0.120,-0.028,-0.057,0.168,9.852,0.260
a,527853,0.000,0.000,36.000,0.000,1.934,0.074,-0.180,1.058,0.178,9.881,0.250
a,527857,0.000,0.000,36.000,0.000,1.934,-0.155,-0.028,0.249,0.199,9.867,0.272
a,527861,0.000,0.000,36.000,0.000,1.978,0.013,-0.074,-0.255,0.178,9.863,0.248
a,527865,0.000,0.000,36.000,0.000,2.021,-0.048,0.110,0.417,0.176,9.888,0.244
a,527869,0.000,0.000,36.000,0.000,1.978,-0.048,-0.119,-0.194,0.204,9.886,0.225
a,527873,0.000,0.000,36.000,0.000,2.021,-0.063,0.155,-0.637,0.174,9.901,0.241
a,527877,0.000,0.000,36.000,0.000,2.021,-0.063,0.247,-0.805,0.189,9.926,0.236
a,527882,0.000,0.000,36.000,0.000,1.978,0.151,0.094,-0.118,0.150,9.902,0.225
a,527885,0.000,0.000,36.000,0.000,2.021,0.029,0.049,-1.034,0.181,9.876,0.266
a,527889,0.000,0.000,36.000,0.000,1.978,-0.048,-0.135,-0.087,0.194,9.893,0.227
a,527894,0.000,0.000,36.000,0.000,2.021,-0.261,0.155,0.310,0.195,9.862,0.269
a,527897,0.000,0.000,36.000,0.000,1.978,-0.216,0.155,-0.362,0.178,9.852,0.266
a,527901,0.000,0.000,36.000,0.000,1.978,0.227,-0.058,0.615,0.150,9.858,0.266
a,527905,0.000,0.000,36.000,0.000,2.021,0.136,-0.043,-1.736,0.192,9.874,0.260
a,527910,0.000,0.000,36.000,0.000,1.934,-0.124,-0.135,-0.850,0.186,9.877,0.266
a,527913,0.000,0.000,36.000,0.000,1.978,0.120,0.033,0.233,0.195,9.911,0.257
a,527917,0.000,0.000,36.000,0.000,1.978,0.273,-0.196,0.020,0.192,9.872,0.227
a,527922,0.000,0.000,36.000,0.000,1.934,0.059,0.033,-0.057,0.160,9.858,0.218
a,527926,0.000,0.000,36.000,0.000,1.978,-0.155,-0.012,0.737,0.195,9.890,0.218
a,527929,0.000,0.000,36.000,0.000,1.890,-0.399,-0.180,-1.141,0.172,9.875,0.263
a,527933,0.000,0.000,36.000,0.000,1.934,-0.216,0.033,-0.362,0.165,9.875,0.266
a,527937,0.000,0.000,36.000,0.000,1.978,-0.231,-0.074,-0.469,0.172,9.872,0.279
a,527941,0.000,0.000,36.000,0.000,1.978,0.166,0.033,0.020,0.198,9.884,0.271
a,527945,0.000,0.000,36.000,0.000,1.978,0.120,0.033,-0.102,0.160,9.867,0.272
a,527949,0.000,0.000,36.000,0.000,1.934,0.059,-0.180,0.295,0.188,9.862,0.243
a,527953,0.000,0.000,36.000,0.000,1.978,0.044,0.049,0.188,0.188,9.843,0.235
a,527957,0.000,0.000,36.000,0.000,2.021,0.334,-0.135,-0.057,0.198,9.890,0.241
a,527961,0.000,0.000,36.000,0.000,1.978,0.044,-0.028,-0.805,0.192,9.872,0.241
a,527965,0.000,0.000,36.000,0.000,1.978,-0.124,0.079,-0.530,0.189,9.857,0.260
a,527969,0.000,0.000,36.000,0.000,1.934,0.013,-0.119,-0.148,0.204,9.877,0.256
a,527973,0.000,0.000,36.000,0.000,1.934,-0.185,-0.119,-0.591,0.194,9.893,0.238
a,527977,0.000,0.000,36.000,0.000,2.065,0.105,-0.135,-0.805,0.186,9.871,0.268
a,527982,0.000,0.000,36.000,0.000,2.021,-0.048,-0.074,-0.255,0.152,9.858,0.237
a,527986,0.000,0.000,36.000,0.000,2.021,0.120,-0.180,0.569,0.183,9.862,0.237
a,527990,0.000,0.000,36.000,0.000,1.978,-0.048,0.110,0.585,0.176,9.867,0.238
a,527993,0.000,0.000,36.000,0.000,1.978,0.151,0.033,-1.079,0.170,9.884,0.265
a,527997,0.000,0.000,36.000,0.000,1.934,-0.048,0.003,0.478,0.180,9.896,0.241
a,528002,0.000,0.000,36.000,0.000,2.021,0.013,-0.135,0.249,0.183,9.859,0.273
a,528006,0.000,0.000,36.000,0.000,1.934,-0.109,-0.028,-0.041,0.170,9.877,0.242
a,528010,0.000,0.000,36.000,0.000,1.978,0.044,-0.135,-0.652,0.174,9.865,0.232
a,528013,0.000,0.000,36.000,0.000,1.978,-0.155,0.171,0.356,0.165,9.852,0.254
a,528017,0.000,0.000,36.000,0.000,2.021,-0.109,0.140,-0.041,0.225,9.859,0.225
a,528021,0.000,0.000,36.000,0.000,1.978,-0.124,0.033,-0.744,0.181,9.874,0.261
a,528025,0.000,0.000,36.000,0.000,1.978,-0.048,0.049,0.692,0.150,9.872,0.269
a,528029,0.000,0.000,36.000,0.000,2.021,0.181,-0.226,1.211,0.205,9.829,0.256
a,528034,0.000,0.000,36.000,0.000,1.978,0.227,-0.119,0.783,0.174,9.856,0.266
a,528038,0.000,0.000,36.000,0.000,1.934,0.120,0.033,-0.316,0.168,9.912,0.249
a,528041,0.000,0.000,36.000,0.000,1.978,0.273,0.033,-0.209,0.170,9.881,0.206
a,528046,0.000,0.000,36.000,0.000,1.978,0.105,-0.074,-1.186,0.204,9.881,0.248
a,528049,0.000,0.000,36.000,0.000,1.978,0.013,-0.012,0.737,0.183,9.912,0.247
a,528053,0.000,0.000,36.000,0.000,1.934,-0.002,-0.012,-0.469,0.192,9.894,0.248
a,528057,0.000,0.000,36.000,0.000,2.021,-0.231,-0.180,-0.850,0.178,9.880,0.256
a,528061,0.000,0.000,36.000,0.000,2.021,0.181,-0.119,0.890,0.183,9.852,0.247
a,528065,0.000,0.000,36.000,0.000,1.978,-0.170,-0.119,-0.744,0.164,9.869,0.256
a,528069,0.000,0.000,36.000,0.000,2.021,0.120,0.461,-0.118,0.186,9.862,0.266
a,528073,0.000,0.000,36.000,0.000,1.978,-0.261,-0.119,0.356,0.188,9.853,0.255
a,528077,0.000,0.000,36.000,0.000,1.934,0.181,0.064,1.760,0.195,9.877,0.275
a,528081,0.000,0.000,36.000,0.000,1.978,-0.017,0.262,-0.942,0.170,9.888,0.241
a,528085,0.000,0.000,36.000,0.000,1.978,0.120,0.140,-0.102,0.204,9.863,0.256
a,528089,0.000,0.000,36.000,0.000,1.978,-0.048,0.033,-0.148,0.186,9.904,0.239
a,528093,0.000,0.000,36.000,0.000,1.978,0.029,-0.119,0.905,0.174,9.889,0.237
a,528097,0.000,0.000,36.000,0.000,1.978,-0.048,0.064,1.058,0.170,9.871,0.256
a,528102,0.000,0.000,36.000,0.000,2.021,-0.109,0.171,0.478,0.186,9.887,0.275
a,528105,0.000,0.000,36.000,0.000,2.021,-0.170,-0.012,0.081,0.205,9.886,0.254
a,528109,0.000,0.000,36.000,0.000,1.978,-0.002,0.049,-0.408,0.188,9.858,0.263
a,528113,0.000,0.000,36.000,0.000,1.978,0.136,-0.058,1.867,0.168,9.858,0.261
a,528117,0.000,0.000,36.000,0.000,2.021,0.059,0.369,0.493,0.158,9.888,0.260
a,528121,0.000,0.000,36.000,0.000,1.978,-0.002,-0.135,-1.171,0.180,9.872,0.250
a,528125,0.000,0.000,36.000,0.000,2.021,-0.155,-0.074,0.249,0.188,9.896,0.265
a,528129,0.000,0.000,36.000,0.000,2.021,0.151,-0.058,0.172,0.194,9.865,0.247
a,528133,0.000,0.000,36.000,0.000,2.021,-0.124,0.140,-0.637,0.136,9.877,0.261
a,528138,0.000,0.000,36.000,0.000,1.978,-0.063,-0.074,-0.408,0.205,9.863,0.257
a,528142,0.000,0.000,36.000,0.000,1.978,0.120,-0.196,-0.057,0.170,9.874,0.217
a,528145,0.000,0.000,36.000,0.000,1.978,-0.048,-0.196,-0.087,0.198,9.911,0.247
a,528149,0.000,0.000,36.000,0.000,1.978,-0.048,-0.058,-0.255,0.152,9.898,0.241
a,528153,0.000,0.000,36.000,0.000,1.978,0.151,-0.058,-0.484,0.168,9.862,0.261
a,528157,0.000,0.000,36.000,0.000,1.978,0.013,-0.028,-0.148,0.164,9.874,0.266
a,528162,0.000,0.000,36.000,0.000,2.021,-0.139,0.094,1.119,0.168,9.884,0.271
a,528166,0.000,0.000,36.000,0.000,1.978,0.013,-0.196,-0.301,0.172,9.874,0.281
a,528170,0.000,0.000,36.000,0.000,1.978,0.044,0.094,-0.484,0.181,9.840,0.248
a,528173,0.000,0.000,36.000,0.000,1.978,-0.048,0.155,0.356,0.195,9.876,0.260
a,528177,0.000,0.000,36.000,0.000,2.021,-0.170,-0.119,-0.957,0.178,9.881,0.253
a,528181,0.000,0.000,36.000,0.000,2.021,-0.139,-0.180,1.073,0.178,9.865,0.254
a,528185,0.000,0.000,36.000,0.000,1.978,-0.155,0.262,0.462,0.186,9.853,0.233
a,528189,0.000,0.000,36.000,0.000,2.021,-0.216,0.110,0.798,0.180,9.900,0.254
a,528193,0.000,0.000,36.000,0.000,1.978,-0.048,0.079,-0.087,0.186,9.876,0.247
a,528197,0.000,0.000,36.000,0.000,2.021,-0.048,0.033,0.249,0.174,9.870,0.249
a,528201,0.000,0.000,36.000,0.000,1.978,0.166,-0.058,0.340,0.183,9.880,0.272
a,528205,0.000,0.000,36.000,0.000,1.934,0.059,-0.058,0.188,0.158,9.862,0.241
a,528209,0.000,0.000,36.000,0.000,2.021,-0.109,-0.058,0.356,0.165,9.888,0.260
a,528213,0.000,0.000,36.000,0.000,1.978,-0.063,-0.135,-0.408,0.192,9.889,0.253
a,528218,0.000,0.000,36.000,0.000,2.021,0.227,-0.028,0.081,0.168,9.876,0.248
a,528221,0.000,0.000,36.000,0.000,1.978,0.059,-0.012,0.569,0.181,9.867,0.238
a,528225,0.000,0.000,36.000,0.000,1.934,0.212,-0.028,-0.423,0.192,9.896,0.224
a,528229,0.000,0.000,36.000,0.000,1.978,0.059,-0.028,-0.102,0.180,9.853,0.255
a,528233,0.000,0.000,36.000,0.000,2.021,-0.109,-0.012,0.142,0.180,9.881,0.273
a,528238,0.000,0.000,36.000,0.000,2.021,0.166,0.186,-0.102,0.174,9.872,0.261
a,528241,0.000,0.000,36.000,0.000,1.934,0.044,0.186,-0.866,0.168,9.893,0.243
a,528245,0.000,0.000,36.000,0.000,1.978,0.013,-0.119,0.630,0.198,9.881,0.267
a,528249,0.000,0.000,36.000,0.000,1.978,0.120,0.033,-0.377,0.183,9.874,0.229
a,528254,0.000,0.000,36.000,0.000,1.978,-0.109,-0.241,-0.041,0.160,9.887,0.242
a,528258,0.000,0.000,36.000,0.000,2.021,0.074,-0.043,-0.362,0.201,9.876,0.242
a,528262,0.000,0.000,36.000,0.000,1.978,-0.139,-0.058,-1.141,0.192,9.913,0.257
a,528265,0.000,0.000,36.000,0.000,1.978,0.013,-0.135,0.249,0.192,9.882,0.272
a,528269,0.000,0.000,36.000,0.000,1.978,-0.170,0.094,-1.125,0.188,9.906,0.277
a,528273,0.000,0.000,36.000,0.000,1.978,0.181,-0.074,0.737,0.158,9.865,0.260
a,528277,0.000,0.000,36.000,0.000,1.978,0.212,0.140,-0.927,0.168,9.871,0.247
a,528281,0.000,0.000,36.000,0.000,1.978,-0.063,-0.119,-0.377,0.163,9.913,0.254
a,528286,0.000,0.000,36.000,0.000,1.978,-0.063,-0.303,-0.957,0.176,9.887,0.229
a,528289,0.000,0.000,36.000,0.000,2.065,-0.216,0.110,1.058,0.194,9.900,0.238
a,528294,0.000,0.000,36.000,0.000,1.934,0.013,-0.043,0.524,0.198,9.877,0.250
a,528298,0.000,0.000,36.000,0.000,2.021,-0.155,0.094,0.356,0.194,9.887,0.231
a,528301,0.000,0.000,36.000,0.000,2.021,-0.063,0.033,-0.850,0.158,9.867,0.262
a,528305,0.000,0.000,36.000,0.000,1.978,0.059,0.079,-0.057,0.174,9.877,0.247
a,528309,0.000,0.000,36.000,0.000,1.978,-0.002,0.033,-0.789,0.168,9.857,0.260
a,528313,0.000,0.000,36.000,0.000,1.934,0.242,0.110,1.333,0.163,9.880,0.267
a,528317,0.000,0.000,36.000,0.000,1.978,-0.048,0.079,-0.301,0.180,9.870,0.256
a,528321,0.000,0.000,36.000,0.000,2.021,0.044,-0.196,-0.652,0.170,9.851,0.256
a,528325,0.000,0.000,36.000,0.000,1.978,-0.109,0.094,0.798,0.163,9.859,0.257
a,528329,0.000,0.000,36.000,0.000,1.978,0.120,-0.028,-0.377,0.165,9.876,0.277
a,528333,0.000,0.000,36.000,0.000,1.978,-0.093,-0.058,1.562,0.165,9.881,0.250
a,528337,0.000,0.000,36.000,0.000,2.021,-0.048,-0.074,-0.362,0.168,9.908,0.242
a,528341,0.000,0.000,36.000,0.000,1.978,0.013,0.049,0.524,0.183,9.878,0.256
a,528345,0.000,0.000,36.000,0.000,2.021,-0.124,-0.074,-0.408,0.186,9.898,0.244
a,528350,0.000,0.000,36.000,0.000,1.890,-0.048,0.201,0.692,0.150,9.881,0.253
a,528353,0.000,0.000,36.000,0.000,1.978,-0.032,-0.119,0.905,0.189,9.898,0.253
a,528357,0.000,0.000,36.000,0.000,1.934,-0.231,-0.196,-0.789,0.194,9.857,0.232
a,528361,0.000,0.000,36.000,0.000,2.021,-0.002,-0.196,-1.018,0.201,9.853,0.278
a,528365,0.000,0.000,36.000,0.000,2.021,-0.002,0.003,0.340,0.150,9.876,0.290
a,528369,0.000,0.000,36.000,0.000,1.934,0.044,-0.241,-1.247,0.220,9.894,0.260
a,528373,0.000,0.000,36.000,0.000,1.934,0.074,0.094,1.592,0.181,9.855,0.238
a,528378,0.000,0.000,36.000,0.000,1.978,-0.109,0.003,0.524,0.186,9.888,0.235
a,528382,0.000,0.000,36.000,0.000,2.021,-0.231,-0.028,-0.850,0.176,9.880,0.241
a,528385,0.000,0.000,36.000,0.000,1.978,-0.002,-0.058,-0.744,0.181,9.871,0.260
a,528389,0.000,0.000,36.000,0.000,2.021,-0.002,-0.043,0.508,0.168,9.878,0.225
a,528393,0.000,0.000,36.000,0.000,1.934,-0.048,0.003,0.478,0.180,9.886,0.279
a,528397,0.000,0.000,36.000,0.000,1.978,0.120,-0.180,0.569,0.186,9.883,0.283
a,528402,0.000,0.000,36.000,0.000,2.021,-0.155,0.003,0.356,0.170,9.898,0.260
a,528406,0.000,0.000,36.000,0.000,1.978,-0.200,-0.119,1.180,0.192,9.845,0.239
a,528409,0.000,0.000,36.000,0.000,2.021,0.105,0.140,-0.591,0.188,9.834,0.265
a,528413,0.000,0.000,36.000,0.000,1.978,0.334,0.155,0.722,0.174,9.881,0.244
a,528417,0.000,0.000,36.000,0.000,1.978,0.258,-0.135,-1.522,0.192,9.871,0.257
a,528421,0.000,0.000,36.000,0.000,1.890,0.074,0.369,1.256,0.163,9.881,0.261
a,528425,0.000,0.000,36.000,0.000,2.021,0.013,0.354,0.020,0.181,9.859,0.247
a,528430,0.000,0.000,36.000,0.000,1.978,-0.155,-0.012,0.310,0.180,9.878,0.247
a,528433,0.000,0.000,36.000,0.000,2.021,-0.093,0.171,0.905,0.219,9.863,0.257
a,528438,0.000,0.000,36.000,0.000,2.021,-0.048,-0.058,0.630,0.150,9.852,0.254
a,528441,0.000,0.000,36.000,0.000,2.021,-0.048,-0.119,0.692,0.198,9.877,0.247
a,528445,0.000,0.000,36.000,0.000,2.021,-0.063,-0.028,-1.018,0.180,9.894,0.273
a,528449,0.000,0.000,36.000,0.000,1.978,0.013,-0.028,-0.194,0.170,9.890,0.238
a,528453,0.000,0.000,36.000,0.000,1.934,0.151,0.033,-1.522,0.183,9.899,0.242
a,528457,0.000,0.000,36.000,0.000,2.021,-0.048,-0.012,0.844,0.168,9.844,0.226
a,528461,0.000,0.000,36.000,0.000,1.934,0.013,-0.074,-0.301,0.180,9.875,0.262
a,528465,0.000,0.000,36.000,0.000,1.978,0.227,0.094,0.508,0.174,9.883,0.255
a,528469,0.000,0.000,36.000,0.000,2.021,0.181,0.094,1.440,0.164,9.875,0.273
a,528473,0.000,0.000,36.000,0.000,1.978,-0.002,-0.196,-0.408,0.165,9.878,0.265
a,528477,0.000,0.000,36.000,0.000,2.021,0.029,0.171,-0.179,0.158,9.902,0.237
a,528482,0.000,0.000,36.000,0.000,2.021,0.120,-0.058,0.462,0.181,9.856,0.243
a,528485,0.000,0.000,36.000,0.000,1.978,-0.277,-0.028,-0.530,0.180,9.896,0.257
a,528489,0.000,0.000,36.000,0.000,1.978,-0.048,0.140,-0.362,0.164,9.859,0.244
a,528493,0.000,0.000,36.000,0.000,1.978,-0.017,-0.089,-1.889,0.180,9.847,0.256
a,528497,0.000,0.000,36.000,0.000,1.978,-0.216,-0.012,0.203,0.181,9.862,0.256
a,528501,0.000,0.000,36.000,0.000,2.021,0.044,-0.028,-0.652,0.165,9.869,0.281
a,528505,0.000,0.000,36.000,0.000,1.978,0.136,-0.196,0.844,0.186,9.872,0.247
a,528509,0.000,0.000,36.000,0.000,1.978,0.166,-0.196,0.020,0.168,9.862,0.257
a,528513,0.000,0.000,36.000,0.000,1.978,0.166,-0.074,-0.057,0.168,9.877,0.254
a,528517,0.000,0.000,36.000,0.000,1.978,0.120,-0.074,-0.209,0.172,9.864,0.239
a,528521,0.000,0.000,36.000,0.000,2.065,-0.002,0.140,-0.576,0.172,9.900,0.266
a,528525,0.000,0.000,36.000,0.000,2.065,-0.063,-0.135,-0.912,0.189,9.888,0.272
a,528529,0.000,0.000,36.000,0.000,1.978,-0.109,0.155,0.737,0.168,9.875,0.231
a,528534,0.000,0.000,36.000,0.000,1.978,0.120,0.217,0.401,0.189,9.886,0.257
a,528538,0.000,0.000,36.000,0.000,2.021,0.074,0.201,0.890,0.194,9.841,0.249
a,528541,0.000,0.000,36.000,0.000,1.978,-0.032,0.094,1.180,0.172,9.869,0.271
a,528545,0.000,0.000,36.000,0.000,1.978,0.059,-0.074,-0.057,0.189,9.875,0.260
a,528549,0.000,0.000,36.000,0.000,1.978,0.105,0.033,-0.484,0.205,9.862,0.241
a,528553,0.000,0.000,36.000,0.000,1.978,-0.048,0.247,0.081,0.164,9.863,0.256
a,528558,0.000,0.000,36.000,0.000,2.021,-0.109,-0.028,0.096,0.163,9.878,0.253
a,528562,0.000,0.000,36.000,0.000,1.978,0.059,0.110,0.722,0.165,9.894,0.254
a,528566,0.000,0.000,36.000,0.000,1.978,-0.124,0.155,-0.789,0.158,9.888,0.241
a,528569,0.000,0.000,36.000,0.000,1.934,0.227,-0.028,-0.316,0.195,9.878,0.227
a,528574,0.000,0.000,36.000,0.000,1.978,0.136,0.201,1.165,0.192,9.872,0.237
a,528578,0.000,0.000,36.000,0.000,2.021,0.046,-0.056,-0.759,0.176,9.877,0.244
a,528582,0.000,0.000,36.000,0.000,2.021,-0.152,0.249,-0.270,0.174,9.890,0.248
a,528585,0.000,0.000,36.000,0.000,1.934,0.168,0.158,-0.209,0.195,9.877,0.267
a,528589,0.000,0.000,36.000,0.000,1.978,-0.107,0.158,0.585,0.163,9.872,0.249
a,528593,0.000,0.000,36.000,0.000,2.021,0.275,-0.056,0.234,0.194,9.872,0.219
a,528597,0.000,0.000,36.000,0.000,2.021,-0.046,-0.026,0.203,0.172,9.901,0.253
a,528601,0.000,0.000,36.000,0.000,2.021,-0.061,0.112,0.890,0.160,9.861,0.256
a,528605,0.000,0.000,36.000,0.000,1.978,0.061,-0.300,-0.316,0.189,9.883,0.257
a,528609,0.000,0.000,36.000,0.000,1.978,0.031,0.097,1.776,0.183,9.887,0.237
a,528613,0.000,0.000,36.000,0.000,2.065,-0.152,-0.026,0.096,0.174,9.888,0.263
a,528617,0.000,0.000,36.000,0.000,1.978,0.046,-0.010,-1.141,0.174,9.902,0.253
a,528621,0.000,0.000,36.000,0.000,1.978,-0.259,-0.239,0.035,0.194,9.912,0.229
a,528625,0.000,0.000,36.000,0.000,2.065,-0.275,0.036,-1.171,0.195,9.864,0.236
a,528629,0.000,0.000,36.000,0.000,2.021,0.015,0.097,-0.041,0.168,9.894,0.248
a,528634,0.000,0.000,36.000,0.000,1.978,-0.122,0.203,-0.408,0.192,9.898,0.247
a,528637,0.000,0.000,36.000,0.000,1.934,-0.259,0.203,0.356,0.164,9.847,0.259
a,528641,0.000,0.000,36.000,0.000,1.978,0.000,-0.071,-0.530,0.181,9.832,0.255
a,528645,0.000,0.000,36.000,0.000,1.978,0.168,0.371,-0.118,0.174,9.876,0.257
a,528649,0.000,0.000,36.000,0.000,1.978,-0.030,-0.087,0.111,0.189,9.882,0.265
a,528653,0.000,0.000,36.000,0.000,1.978,-0.122,0.097,-0.530,0.168,9.844,0.269
a,528657,0.000,0.000,36.000,0.000,1.978,-0.061,0.203,-0.957,0.170,9.872,0.238
a,528661,0.000,0.000,36.000,0.000,2.021,0.000,-0.010,-0.850,0.172,9.887,0.225
a,528665,0.000,0.000,36.000,0.000,1.934,0.183,0.020,-0.255,0.211,9.883,0.243
a,528669,0.000,0.000,36.000,0.000,2.021,-0.061,0.249,-0.545,0.186,9.900,0.261
a,528674,0.000,0.000,36.000,0.000,1.934,-0.091,-0.041,1.012,0.150,9.837,0.256
a,528677,0.000,0.000,36.000,0.000,2.021,0.015,0.051,-0.194,0.180,9.876,0.273
a,528681,0.000,0.000,36.000,0.000,2.021,-0.061,0.142,-0.469,0.174,9.904,0.262
a,528685,0.000,0.000,36.000,0.000,2.021,0.046,0.142,-0.484,0.181,9.884,0.273
a,528689,0.000,0.000,36.000,0.000,2.065,0.046,0.097,-0.591,0.181,9.898,0.237
a,528693,0.000,0.000,36.000,0.000,1.978,-0.107,0.158,-0.148,0.158,9.863,0.213
a,528698,0.000,0.000,36.000,0.000,1.978,-0.061,0.158,-0.789,0.164,9.877,0.225
a,528702,0.000,0.000,36.000,0.000,1.978,-0.122,0.158,0.020,0.209,9.870,0.250
a,528705,0.000,0.000,36.000,0.000,1.934,-0.168,0.142,-0.744,0.181,9.869,0.257
a,528709,0.000,0.000,36.000,0.000,2.021,-0.046,0.066,0.356,0.195,9.896,0.279
a,528713,0.000,0.000,36.000,0.000,2.065,0.168,0.051,0.234,0.194,9.855,0.250
a,528717,0.000,0.000,36.000,0.000,1.978,0.046,0.036,-0.927,0.180,9.895,0.273
a,528721,0.000,0.000,36.000,0.000,1.978,-0.107,-0.026,-0.301,0.186,9.894,0.213
a,528726,0.000,0.000,36.000,0.000,2.021,-0.046,-0.026,0.142,0.174,9.907,0.233
a,528730,0.000,0.000,36.000,0.000,2.021,0.000,-0.071,-1.507,0.181,9.849,0.236
a,528733,0.000,0.000,36.000,0.000,2.021,0.046,0.188,-0.759,0.172,9.869,0.242
a,528738,0.000,0.000,36.000,0.000,2.021,0.015,-0.010,0.249,0.176,9.867,0.260
a,528741,0.000,0.000,36.000,0.000,2.021,-0.046,0.036,0.249,0.209,9.863,0.275
a,528745,0.000,0.000,36.000,0.000,1.978,0.046,0.142,-0.759,0.186,9.858,0.266
a,528749,0.000,0.000,36.000,0.000,2.065,0.122,0.448,0.661,0.174,9.851,0.256
a,528753,0.000,0.000,36.000,0.000,2.065,0.153,0.142,-0.759,0.160,9.888,0.256
a,528757,0.000,0.000,36.000,0.000,2.021,0.229,-0.071,0.234,0.180,9.886,0.215
a,528761,0.000,0.000,36.000,0.000,1.978,-0.198,-0.132,0.325,0.178,9.896,0.224
a,528765,0.000,0.000,36.000,0.000,1.978,-0.046,-0.026,-0.362,0.192,9.898,0.226
a,528769,0.000,0.000,36.000,0.000,1.934,-0.107,0.112,0.478,0.178,9.905,0.225
a,528773,0.000,0.000,36.000,0.000,1.978,-0.152,0.081,-0.255,0.189,9.858,0.257
a,528777,0.000,0.000,36.000,0.000,2.021,-0.168,-0.026,-0.469,0.176,9.862,0.287
a,528782,0.000,0.000,36.000,0.000,1.978,0.168,-0.056,-0.102,0.163,9.828,0.241
a,528785,0.000,0.000,36.000,0.000,2.021,0.046,-0.010,-0.973,0.178,9.869,0.242
a,528789,0.000,0.000,36.000,0.000,1.978,0.107,-0.026,-0.423,0.154,9.849,0.231
a,528793,0.000,0.000,36.000,0.000,1.978,0.000,-0.071,-0.576,0.172,9.840,0.231
a,528797,0.000,0.000,36.000,0.000,2.021,-0.046,-0.178,0.417,0.164,9.906,0.257
a,528801,0.000,0.000,36.000,0.000,1.978,0.214,0.081,-0.927,0.189,9.815,0.226
a,528805,0.000,0.000,36.000,0.000,1.934,-0.320,0.081,0.142,0.188,9.862,0.233
a,528809,0.000,0.000,36.000,0.000,1.978,-0.152,-0.071,-0.194,0.148,9.918,0.229
a,528813,0.000,0.000,36.000,0.000,2.021,-0.046,0.036,0.142,0.181,9.898,0.226
a,528817,0.000,0.000,36.000,0.000,1.978,0.122,0.005,0.295,0.168,9.872,0.267
a,528821,0.000,0.000,36.000,0.000,2.021,0.107,0.188,-1.354,0.188,9.867,0.253
a,528825,0.000,0.000,36.000,0.000,1.978,-0.168,-0.331,-0.744,0.183,9.852,0.253
a,528829,0.000,0.000,36.000,0.000,2.021,0.168,0.051,-0.316,0.201,9.887,0.261
a,528834,0.000,0.000,36.000,0.000,2.065,0.214,-0.026,-0.927,0.174,9.859,0.248
a,528838,0.000,0.000,36.000,0.000,2.021,0.046,-0.270,0.615,0.165,9.859,0.213
a,528841,0.000,0.000,36.000,0.000,1.978,0.015,0.081,-0.087,0.189,9.865,0.250
a,528845,0.000,0.000,36.000,0.000,1.978,0.015,-0.026,-0.087,0.170,9.892,0.229
a,528849,0.000,0.000,36.000,0.000,1.978,-0.152,0.112,0.310,0.157,9.881,0.247
a,528853,0.000,0.000,36.000,0.000,1.978,0.061,-0.209,0.676,0.183,9.912,0.244
a,528858,0.000,0.000,36.000,0.000,1.978,0.168,-0.026,0.234,0.180,9.876,0.247
a,528862,0.000,0.000,36.000,0.000,1.978,0.061,-0.193,0.188,0.164,9.875,0.268
a,528866,0.000,0.000,36.000,0.000,2.021,0.061,0.066,0.340,0.192,9.847,0.237
a,528869,0.000,0.000,36.000,0.000,2.021,0.122,-0.010,0.569,0.178,9.858,0.237
a,528874,0.000,0.000,36.000,0.000,1.978,-0.046,0.081,0.096,0.160,9.910,0.244
a,528878,0.000,0.000,36.000,0.000,1.978,0.153,-0.132,-0.591,0.192,9.855,0.250
a,528882,0.000,0.000,36.000,0.000,2.021,-0.030,0.051,0.966,0.188,9.901,0.232
a,528885,0.000,0.000,36.000,0.000,1.934,0.015,0.173,1.165,0.170,9.889,0.253
a,528889,0.000,0.000,36.000,0.000,2.021,0.000,-0.041,0.722,0.164,9.878,0.256
a,528893,0.000,0.000,36.000,0.000,1.978,0.122,0.036,0.081,0.145,9.892,0.241
a,528897,0.000,0.000,36.000,0.000,1.978,0.122,-0.041,-1.064,0.168,9.874,0.260
a,528901,0.000,0.000,36.000,0.000,1.978,0.015,-0.117,0.310,0.178,9.902,0.253
a,528905,0.000,0.000,36.000,0.000,2.065,-0.046,-0.071,0.142,0.192,9.863,0.265
a,528909,0.000,0.000,36.000,0.000,1.978,0.015,-0.193,0.249,0.160,9.880,0.249
a,528913,0.000,0.000,36.000,0.000,1.978,-0.061,-0.178,0.234,0.192,9.864,0.263
a,528917,0.000,0.000,36.000,0.000,2.021,-0.046,0.173,0.737,0.194,9.851,0.248
a,528921,0.000,0.000,36.000,0.000,1.978,0.107,0.097,-0.866,0.176,9.890,0.248
a,528925,0.000,0.000,36.000,0.000,1.978,0.153,0.142,-0.698,0.181,9.877,0.243
a,528929,0.000,0.000,36.000,0.000,1.978,-0.152,0.265,-0.057,0.194,9.902,0.257
a,528934,0.000,0.000,36.000,0.000,1.978,0.015,-0.056,0.142,0.178,9.883,0.235
a,528937,0.000,0.000,36.000,0.000,1.934,-0.030,-0.056,0.966,0.188,9.886,0.236
a,528941,0.000,0.000,36.000,0.000,1.978,0.000,-0.071,-0.576,0.201,9.887,0.221
a,528945,0.000,0.000,36.000,0.000,1.978,0.260,-0.193,-0.591,0.174,9.892,0.250
a,528949,0.000,0.000,36.000,0.000,1.978,0.000,0.158,-0.530,0.172,9.883,0.248
a,528953,0.000,0.000,36.000,0.000,2.021,-0.214,-0.407,-0.255,0.176,9.881,0.266
a,528957,0.000,0.000,36.000,0.000,1.978,-0.168,-0.056,-1.171,0.165,9.880,0.244
a,528961,0.000,0.000,36.000,0.000,2.021,-0.061,0.051,-0.163,0.188,9.896,0.253
a,528965,0.000,0.000,36.000,0.000,2.021,0.061,0.097,0.615,0.186,9.886,0.253
a,528969,0.000,0.000,36.000,0.000,2.021,-0.107,-0.010,0.249,0.176,9.838,0.237
a,528974,0.000,0.000,36.000,0.000,2.021,0.061,0.081,0.188,0.148,9.845,0.263
a,528978,0.000,0.000,36.000,0.000,2.021,0.168,0.097,0.569,0.163,9.840,0.279
a,528981,0.000,0.000,36.000,0.000,2.065,0.061,0.066,0.463,0.174,9.871,0.260
a,528985,0.000,0.000,36.000,0.000,2.021,0.015,-0.010,0.692,0.204,9.888,0.268
a,528989,0.000,0.000,36.000,0.000,1.978,0.138,-0.163,1.272,0.195,9.872,0.266
a,528993,0.000,0.000,36.000,0.000,2.021,-0.122,0.097,-1.064,0.170,9.865,0.250
a,528998,0.000,0.000,36.000,0.000,2.021,0.122,0.081,-0.057,0.186,9.880,0.229
a,529002,0.000,0.000,36.000,0.000,1.978,-0.046,-0.132,-0.301,0.186,9.898,0.243
a,529005,0.000,0.000,36.000,0.000,2.021,-0.152,0.203,0.798,0.164,9.858,0.238
a,529009,0.000,0.000,36.000,0.000,1.978,-0.152,-0.117,0.692,0.172,9.890,0.262
a,529013,0.000,0.000,36.000,0.000,2.021,0.046,0.051,0.127,0.174,9.874,0.272
a,529017,0.000,0.000,36.000,0.000,2.021,0.061,0.081,-0.270,0.189,9.876,0.253
a,529021,0.000,0.000,36.000,0.000,1.978,0.229,-0.300,0.020,0.192,9.876,0.273
a,529026,0.000,0.000,36.000,0.000,2.021,-0.076,0.158,-0.759,0.168,9.878,0.256
a,529030,0.000,0.000,36.000,0.000,1.978,-0.107,-0.193,-0.041,0.188,9.870,0.227
a,529034,0.000,0.000,36.000,0.000,2.021,0.061,0.280,0.707,0.168,9.867,0.260
a,529038,0.000,0.000,36.000,0.000,2.021,0.046,0.158,-0.698,0.198,9.892,0.257
a,529042,0.000,0.000,36.000,0.000,1.978,0.168,-0.117,0.401,0.178,9.876,0.232
a,529045,0.000,0.000,36.000,0.000,1.978,0.168,-0.056,0.081,0.178,9.876,0.224
a,529049,0.000,0.000,36.000,0.000,1.934,-0.198,-0.010,1.348,0.186,9.867,0.226
a,529053,0.000,0.000,36.000,0.000,1.978,-0.214,-0.071,-0.301,0.189,9.872,0.244
a,529057,0.000,0.000,36.000,0.000,2.021,-0.168,0.188,-0.744,0.181,9.875,0.250
a,529061,0.000,0.000,36.000,0.000,1.978,0.061,-0.010,0.081,0.186,9.872,0.263
a,529065,0.000,0.000,36.000,0.000,1.978,0.061,0.081,0.081,0.178,9.849,0.250
a,529069,0.000,0.000,36.000,0.000,2.021,-0.030,-0.010,1.180,0.192,9.880,0.260
a,529073,0.000,0.000,36.000,0.000,2.021,-0.107,-0.071,0.035,0.201,9.898,0.293
a,529077,0.000,0.000,36.000,0.000,2.021,-0.061,0.310,-0.927,0.181,9.888,0.247
a,529081,0.000,0.000,36.000,0.000,1.978,-0.107,-0.010,0.630,0.164,9.898,0.261
a,529085,0.000,0.000,36.000,0.000,2.021,0.000,-0.056,-0.408,0.183,9.908,0.242
a,529089,0.000,0.000,36.000,0.000,1.978,-0.152,0.036,0.142,0.180,9.865,0.226
a,529093,0.000,0.000,36.000,0.000,1.978,-0.214,-0.010,0.524,0.178,9.863,0.266
a,529097,0.000,0.000,36.000,0.000,1.978,-0.214,0.081,0.035,0.172,9.849,0.253
a,529102,0.000,0.000,36.000,0.000,2.021,0.046,-0.178,-0.316,0.168,9.893,0.257
a,529105,0.000,0.000,36.000,0.000,2.021,-0.046,0.158,-0.087,0.160,9.869,0.232
a,529109,0.000,0.000,36.000,0.000,2.021,-0.152,-0.056,-0.194,0.204,9.890,0.283
a,529113,0.000,0.000,36.000,0.000,2.021,0.153,0.081,-1.141,0.158,9.875,0.255
a,529117,0.000,0.000,36.000,0.000,1.978,-0.152,-0.117,0.844,0.168,9.880,0.275
a,529121,0.000,0.000,36.000,0.000,1.978,0.046,-0.193,-0.652,0.168,9.851,0.247
