HEADER,TIME_MS,SV_DRV,SV_STR,SV_STD,GY_ROLL,GY_YAW,GY_PITCH,ACC_X,ACC_Y,ACC_Z,SV_POS
a,197715,0.000,0.000,36.000,-0.332,-0.498,-0.177,2.048,9.475,2.386,2.461
a,197719,0.000,0.000,36.000,0.096,-0.284,-0.697,2.040,9.324,2.243,2.065
a,197722,0.000,0.000,36.000,0.386,0.219,0.662,2.142,9.373,2.228,2.065
a,197726,0.000,0.000,36.000,0.020,0.448,1.059,2.097,9.416,2.318,2.417
a,197730,0.000,0.000,36.000,0.096,0.265,-0.697,2.087,9.363,2.205,2.021
a,197734,0.000,0.000,36.000,0.142,-0.437,0.006,2.271,9.412,2.166,2.021
a,197739,0.000,0.000,36.000,0.050,-0.452,0.204,2.093,9.379,2.290,2.021
a,197743,0.000,0.000,36.000,0.157,0.158,-0.040,2.095,9.382,2.270,2.065
a,197746,0.000,0.000,36.000,0.004,0.280,0.220,2.096,9.376,2.229,2.065
a,197750,0.000,0.000,36.000,0.096,-0.071,-0.697,2.161,9.364,2.222,1.978
a,197755,0.000,0.000,36.000,0.004,-0.269,0.647,2.209,9.407,2.228,2.461
a,197758,0.000,0.000,36.000,-0.041,-0.391,-1.551,2.063,9.391,2.228,2.417
a,197762,0.000,0.000,36.000,-0.011,-0.071,-1.216,2.088,9.386,2.255,2.065
a,197766,0.000,0.000,36.000,0.050,0.097,0.296,2.100,9.353,2.237,2.021
a,197770,0.000,0.000,36.000,0.157,0.219,0.204,2.115,9.397,2.212,2.461
a,197774,0.000,0.000,36.000,-0.011,-0.254,0.525,2.181,9.401,2.212,2.065
a,197778,0.000,0.000,36.000,0.142,-0.483,-0.422,2.140,9.383,2.241,2.109
a,197782,0.000,0.000,36.000,-0.072,-0.223,-1.048,2.133,9.396,2.249,2.109
a,197786,0.000,0.000,36.000,-0.011,0.097,-1.445,2.088,9.369,2.248,2.021
a,197790,0.000,0.000,36.000,0.004,-0.071,0.296,2.112,9.389,2.233,2.065
a,197794,0.000,0.000,36.000,-0.057,-0.178,-0.177,2.149,9.386,2.215,2.065
a,197798,0.000,0.000,36.000,0.233,-0.269,1.563,2.167,9.397,2.237,2.065
a,197803,0.000,0.000,36.000,0.004,-0.269,-0.147,2.122,9.383,2.254,2.065
a,197806,0.000,0.000,36.000,0.157,-0.101,0.952,2.096,9.366,2.235,2.065
a,197810,0.000,0.000,36.000,0.157,-0.010,0.067,2.096,9.365,2.257,2.109
a,197814,0.000,0.000,36.000,0.004,0.219,0.723,2.157,9.359,2.222,2.065
a,197818,0.000,0.000,36.000,-0.103,-0.162,0.494,2.146,9.392,2.218,2.065
a,197822,0.000,0.000,36.000,-0.347,-0.330,-1.017,2.115,9.389,2.257,2.021
a,197826,0.000,0.000,36.000,0.020,-0.055,1.303,2.114,9.357,2.264,2.417
a,197830,0.000,0.000,36.000,0.020,0.158,0.586,2.096,9.361,2.241,2.021
a,197834,0.000,0.000,36.000,0.004,0.174,0.784,2.110,9.385,2.212,2.065
a,197839,0.000,0.000,36.000,-0.240,-0.162,-0.468,2.150,9.402,2.228,2.417
a,197842,0.000,0.000,36.000,0.020,-0.208,-0.468,2.158,9.390,2.216,2.065
a,197846,0.000,0.000,36.000,-0.072,-0.223,-0.239,2.118,9.383,2.255,2.021
a,197850,0.000,0.000,36.000,-0.057,0.036,0.082,2.133,9.354,2.240,2.461
a,197855,0.000,0.000,36.000,0.020,0.280,1.761,2.131,9.400,2.251,2.109
a,197859,0.000,0.000,36.000,0.050,-0.376,0.632,2.161,9.398,2.209,2.065
a,197863,0.000,0.000,36.000,-0.133,-0.162,-0.742,2.146,9.377,2.235,2.417
a,197867,0.000,0.000,36.000,0.203,-0.010,-0.544,2.114,9.360,2.234,2.065
a,197870,0.000,0.000,36.000,0.065,0.006,1.181,2.096,9.345,2.246,2.065
a,197874,0.000,0.000,36.000,0.218,-0.071,-0.040,2.130,9.389,2.235,2.021
a,197878,0.000,0.000,36.000,0.111,-0.055,-0.116,2.131,9.394,2.228,2.021
a,197882,0.000,0.000,36.000,-0.057,-0.162,0.693,2.137,9.366,2.241,2.065
a,197887,0.000,0.000,36.000,-0.103,0.006,0.479,2.124,9.396,2.227,2.417
a,197891,0.000,0.000,36.000,-0.011,-0.071,-0.773,2.131,9.401,2.212,2.417
a,197894,0.000,0.000,36.000,-0.057,-0.055,0.525,2.108,9.342,2.230,2.065
a,197899,0.000,0.000,36.000,0.203,-0.254,-1.551,2.126,9.384,2.234,2.109
a,197903,0.000,0.000,36.000,0.035,-0.208,-0.086,2.127,9.388,2.225,2.021
a,197906,0.000,0.000,36.000,-0.087,-0.147,1.227,2.140,9.380,2.233,2.021
a,197910,0.000,0.000,36.000,-0.057,0.006,0.800,2.112,9.390,2.257,2.065
a,197914,0.000,0.000,36.000,-0.103,-0.055,0.800,2.121,9.373,2.248,2.021
a,197918,0.000,0.000,36.000,0.004,-0.147,0.632,2.125,9.379,2.260,2.417
a,197922,0.000,0.000,36.000,0.004,-0.055,-0.208,2.138,9.364,2.270,2.065
a,197926,0.000,0.000,36.000,0.020,-0.162,1.746,2.114,9.406,2.266,2.065
a,197930,0.000,0.000,36.000,0.325,-0.101,0.418,2.127,9.413,2.237,2.065
a,197934,0.000,0.000,36.000,0.035,-0.010,-1.063,2.115,9.394,2.228,2.021
a,197938,0.000,0.000,36.000,-0.164,0.051,0.968,2.126,9.400,2.233,1.978
a,197942,0.000,0.000,36.000,0.111,-0.055,0.311,2.122,9.390,2.209,2.109
a,197946,0.000,0.000,36.000,0.142,-0.010,-0.590,2.130,9.390,2.240,2.461
a,197950,0.000,0.000,36.000,-0.011,-0.223,-1.063,2.152,9.371,2.224,2.065
a,197955,0.000,0.000,36.000,0.004,-0.055,0.220,2.128,9.377,2.254,2.109
a,197958,0.000,0.000,36.000,-0.011,-0.071,-0.574,2.118,9.371,2.240,2.021
a,197962,0.000,0.000,36.000,0.004,-0.040,0.784,2.131,9.394,2.241,2.065
a,197966,0.000,0.000,36.000,0.111,-0.055,0.525,2.131,9.353,2.237,2.065
a,197970,0.000,0.000,36.000,0.157,-0.284,-0.040,2.131,9.392,2.249,2.065
a,197974,0.000,0.000,36.000,0.111,-0.071,0.326,2.126,9.389,2.241,2.065
a,197978,0.000,0.000,36.000,0.020,0.006,-0.483,2.112,9.380,2.251,2.021
a,197982,0.000,0.000,36.000,0.157,-0.193,1.487,2.115,9.384,2.204,2.461
a,197986,0.000,0.000,36.000,0.004,0.006,-0.040,2.113,9.379,2.210,2.065
a,197991,0.000,0.000,36.000,-0.133,-0.071,-1.780,2.128,9.394,2.229,2.065
a,197994,0.000,0.000,36.000,0.096,0.143,0.555,2.119,9.382,2.237,2.065
a,197998,0.000,0.000,36.000,-0.057,0.128,1.212,2.115,9.361,2.233,2.021
a,198002,0.000,0.000,36.000,0.325,0.036,-0.177,2.137,9.353,2.241,2.109
a,198006,0.000,0.000,36.000,-0.255,-0.269,1.395,2.124,9.384,2.263,2.065
a,198011,0.000,0.000,36.000,0.050,-0.223,0.418,2.139,9.360,2.235,2.065
a,198015,0.000,0.000,36.000,0.111,-0.315,-0.162,2.100,9.377,2.239,2.417
a,198018,0.000,0.000,36.000,0.050,-0.055,0.647,2.136,9.382,2.248,2.065
a,198022,0.000,0.000,36.000,-0.179,-0.010,-0.635,2.096,9.407,2.266,1.978
a,198026,0.000,0.000,36.000,0.218,-0.071,0.128,2.110,9.351,2.243,2.021
a,198030,0.000,0.000,36.000,-0.087,-0.132,0.311,2.118,9.380,2.246,2.021
a,198034,0.000,0.000,36.000,0.035,-0.178,-0.239,2.143,9.395,2.227,2.417
a,198039,0.000,0.000,36.000,0.203,0.112,-0.498,2.107,9.390,2.237,2.065
a,198042,0.000,0.000,36.000,-0.011,-0.071,-1.002,2.131,9.363,2.248,2.417
a,198047,0.000,0.000,36.000,0.157,-0.055,0.616,2.126,9.391,2.233,2.065
a,198051,0.000,0.000,36.000,-0.057,-0.284,0.082,2.126,9.396,2.266,2.065
a,198054,0.000,0.000,36.000,0.126,-0.178,0.739,2.126,9.386,2.221,2.021
a,198058,0.000,0.000,36.000,0.004,-0.223,0.082,2.118,9.366,2.237,1.978
a,198062,0.000,0.000,36.000,-0.057,-0.071,0.143,2.126,9.361,2.243,2.021
a,198066,0.000,0.000,36.000,0.004,-0.117,0.189,2.114,9.380,2.251,2.021
a,198070,0.000,0.000,36.000,-0.011,-0.010,-0.544,2.114,9.367,2.264,2.417
a,198074,0.000,0.000,36.000,-0.011,-0.010,-1.231,2.115,9.392,2.241,2.065
a,198078,0.000,0.000,36.000,-0.103,0.204,0.067,2.106,9.398,2.235,2.065
a,198082,0.000,0.000,36.000,0.157,-0.178,0.281,2.131,9.389,2.269,2.021
a,198086,0.000,0.000,36.000,0.050,0.051,0.479,2.096,9.367,2.251,2.065
a,198090,0.000,0.000,36.000,-0.118,-0.010,-0.681,2.126,9.401,2.255,2.065
a,198094,0.000,0.000,36.000,0.218,-0.223,-0.086,2.112,9.374,2.255,2.021
a,198098,0.000,0.000,36.000,0.111,-0.117,0.281,2.102,9.389,2.241,2.065
a,198102,0.000,0.000,36.000,-0.103,0.112,0.510,2.137,9.366,2.222,2.065
a,198106,0.000,0.000,36.000,0.142,-0.040,0.265,2.113,9.385,2.245,2.461
a,198111,0.000,0.000,36.000,-0.240,0.006,0.220,2.134,9.364,2.223,2.065
a,198114,0.000,0.000,36.000,0.218,-0.055,0.052,2.112,9.398,2.245,2.065
a,198118,0.000,0.000,36.000,0.203,-0.117,-0.635,2.137,9.398,2.243,2.065
a,198122,0.000,0.000,36.000,-0.072,-0.086,-0.147,2.115,9.392,2.254,2.065
a,198126,0.000,0.000,36.000,0.004,-0.071,0.036,2.119,9.389,2.222,2.065
a,198130,0.000,0.000,36.000,-0.011,0.097,-0.315,2.119,9.382,2.235,2.021
a,198134,0.000,0.000,36.000,-0.118,-0.086,0.586,2.131,9.377,2.252,2.021
a,198139,0.000,0.000,36.000,0.111,-0.040,0.555,2.132,9.401,2.260,2.109
a,198143,0.000,0.000,36.000,-0.103,-0.178,0.097,2.127,9.372,2.241,2.373
a,198146,0.000,0.000,36.000,0.004,0.112,0.403,2.113,9.341,2.222,2.021
a,198150,0.000,0.000,36.000,-0.240,-0.071,-0.742,2.133,9.391,2.228,2.417
a,198154,0.000,0.000,36.000,0.050,-0.284,0.036,2.114,9.394,2.235,2.065
a,198158,0.000,0.000,36.000,-0.118,0.174,-0.208,2.107,9.372,2.243,2.065
a,198163,0.000,0.000,36.000,-0.103,0.036,0.220,2.099,9.374,2.248,2.065
a,198167,0.000,0.000,36.000,0.035,-0.162,0.082,2.134,9.363,2.245,2.065
a,198170,0.000,0.000,36.000,-0.072,-0.101,0.128,2.107,9.373,2.229,2.021
a,198174,0.000,0.000,36.000,-0.026,-0.162,-0.254,2.122,9.419,2.235,2.065
a,198178,0.000,0.000,36.000,0.004,0.006,0.113,2.131,9.373,2.222,2.065
a,198182,0.000,0.000,36.000,0.111,-0.055,0.586,2.157,9.363,2.218,2.109
a,198186,0.000,0.000,36.000,0.035,0.006,-1.032,2.128,9.379,2.229,2.417
a,198191,0.000,0.000,36.000,0.203,-0.071,-0.590,2.115,9.409,2.253,2.461
a,198194,0.000,0.000,36.000,0.004,-0.284,0.342,2.127,9.384,2.251,2.021
a,198199,0.000,0.000,36.000,-0.118,-0.117,-0.468,2.127,9.377,2.261,2.065
a,198202,0.000,0.000,36.000,-0.026,-0.162,-0.849,2.127,9.364,2.241,2.065
a,198206,0.000,0.000,36.000,-0.133,-0.055,-0.758,2.127,9.398,2.235,2.417
a,198210,0.000,0.000,36.000,-0.057,-0.040,0.891,2.128,9.352,2.243,2.373
a,198214,0.000,0.000,36.000,0.096,0.143,0.876,2.131,9.382,2.209,2.461
a,198218,0.000,0.000,36.000,0.218,0.158,0.387,2.137,9.364,2.261,2.109
a,198222,0.000,0.000,36.000,0.111,-0.010,-0.040,2.124,9.391,2.243,2.065
a,198226,0.000,0.000,36.000,-0.011,-0.071,-0.361,2.112,9.371,2.230,2.021
a,198230,0.000,0.000,36.000,-0.103,-0.117,0.342,2.124,9.389,2.230,2.109
a,198234,0.000,0.000,36.000,-0.103,-0.071,0.189,2.145,9.363,2.233,2.065
a,198238,0.000,0.000,36.000,0.004,0.006,0.403,2.119,9.369,2.222,2.109
a,198242,0.000,0.000,36.000,-0.179,0.112,0.067,2.131,9.380,2.270,1.978
a,198246,0.000,0.000,36.000,0.142,-0.208,-1.032,2.119,9.373,2.239,2.065
a,198250,0.000,0.000,36.000,-0.011,-0.117,-0.956,2.126,9.382,2.237,2.021
a,198255,0.000,0.000,36.000,-0.057,-0.178,0.128,2.115,9.355,2.248,2.065
a,198258,0.000,0.000,36.000,0.050,0.021,-0.681,2.139,9.388,2.230,2.065
a,198262,0.000,0.000,36.000,-0.057,-0.086,0.525,2.134,9.391,2.219,2.109
a,198266,0.000,0.000,36.000,0.050,-0.208,0.479,2.114,9.377,2.240,2.065
a,198270,0.000,0.000,36.000,0.096,0.051,-0.010,2.134,9.394,2.252,2.021
a,198274,0.000,0.000,36.000,0.126,-0.055,-0.284,2.131,9.372,2.251,2.065
a,198278,0.000,0.000,36.000,0.096,-0.178,-0.361,2.152,9.390,2.227,2.109
a,198282,0.000,0.000,36.000,0.050,0.021,0.845,2.146,9.372,2.233,2.065
a,198286,0.000,0.000,36.000,-0.164,-0.071,-0.132,2.121,9.367,2.237,2.373
a,198291,0.000,0.000,36.000,-0.057,0.006,-0.208,2.119,9.386,2.228,2.021
a,198294,0.000,0.000,36.000,0.035,-0.223,-1.124,2.121,9.406,2.227,2.109
a,198298,0.000,0.000,36.000,-0.011,0.036,-0.361,2.145,9.360,2.222,2.021
a,198302,0.000,0.000,36.000,-0.011,-0.117,-0.300,2.124,9.378,2.240,2.065
a,198306,0.000,0.000,36.000,0.096,-0.223,-0.697,2.115,9.373,2.270,2.021
a,198311,0.000,0.000,36.000,0.126,0.097,-1.582,2.121,9.407,2.241,2.065
a,198315,0.000,0.000,36.000,-0.087,-0.055,1.288,2.118,9.407,2.241,2.065
a,198319,0.000,0.000,36.000,-0.011,-0.055,-0.971,2.119,9.388,2.237,2.329
a,198322,0.000,0.000,36.000,-0.011,-0.117,-0.529,2.127,9.374,2.233,2.065
a,198326,0.000,0.000,36.000,0.050,0.036,0.021,2.130,9.382,2.241,2.109
a,198330,0.000,0.000,36.000,-0.057,-0.178,0.128,2.103,9.360,2.209,2.021
a,198334,0.000,0.000,36.000,0.157,-0.223,-0.162,2.112,9.366,2.253,2.109
a,198339,0.000,0.000,36.000,0.035,-0.147,0.968,2.143,9.377,2.237,2.065
a,198342,0.000,0.000,36.000,0.218,-0.193,0.891,2.140,9.380,2.247,2.065
a,198347,0.000,0.000,36.000,0.111,-0.117,0.021,2.133,9.357,2.234,2.021
a,198351,0.000,0.000,36.000,-0.057,-0.376,0.907,2.127,9.360,2.230,2.021
a,198354,0.000,0.000,36.000,-0.057,0.021,0.464,2.127,9.379,2.237,2.373
a,198358,0.000,0.000,36.000,-0.072,-0.040,0.678,2.121,9.347,2.217,2.373
a,198362,0.000,0.000,36.000,-0.164,0.051,0.968,2.131,9.358,2.240,2.109
a,198366,0.000,0.000,36.000,0.004,-0.055,0.540,2.110,9.410,2.234,2.417
a,198370,0.000,0.000,36.000,0.157,-0.162,-0.162,2.146,9.407,2.217,2.065
a,198374,0.000,0.000,36.000,0.111,-0.025,-0.315,2.106,9.370,2.251,2.065
a,198378,0.000,0.000,36.000,0.004,-0.147,0.800,2.116,9.391,2.229,2.065
a,198382,0.000,0.000,36.000,0.157,-0.010,0.265,2.110,9.389,2.233,2.065
a,198386,0.000,0.000,36.000,-0.103,-0.055,0.479,2.139,9.382,2.237,2.417
a,198390,0.000,0.000,36.000,-0.072,-0.101,0.128,2.127,9.379,2.237,2.021
a,198394,0.000,0.000,36.000,0.035,-0.117,-0.239,2.119,9.369,2.246,2.065
a,198398,0.000,0.000,36.000,0.065,0.006,1.487,2.124,9.380,2.234,2.065
a,198403,0.000,0.000,36.000,0.050,-0.269,0.479,2.124,9.389,2.233,2.373
a,198406,0.000,0.000,36.000,0.142,-0.055,-0.559,2.150,9.421,2.204,2.065
a,198410,0.000,0.000,36.000,0.279,-0.300,-0.681,2.131,9.401,2.246,2.021
a,198414,0.000,0.000,36.000,-0.179,-0.284,-1.322,2.110,9.366,2.233,2.373
a,198418,0.000,0.000,36.000,-0.057,-0.055,1.029,2.131,9.358,2.241,2.021
a,198422,0.000,0.000,36.000,0.004,0.067,0.678,2.115,9.386,2.243,2.065
a,198426,0.000,0.000,36.000,-0.103,-0.101,0.540,2.131,9.390,2.246,2.021
a,198430,0.000,0.000,36.000,0.142,-0.010,-0.926,2.124,9.366,2.264,2.373
a,198434,0.000,0.000,36.000,0.218,0.006,-0.177,2.146,9.373,2.237,2.417
a,198438,0.000,0.000,36.000,0.096,-0.071,-0.849,2.118,9.369,2.248,2.373
a,198442,0.000,0.000,36.000,-0.164,-0.162,0.876,2.115,9.389,2.237,2.065
a,198446,0.000,0.000,36.000,0.142,-0.117,-0.315,2.115,9.373,2.251,2.021
a,198451,0.000,0.000,36.000,0.004,-0.040,0.784,2.137,9.373,2.223,2.065
a,198454,0.000,0.000,36.000,-0.072,0.051,-0.315,2.144,9.377,2.248,2.021
a,198458,0.000,0.000,36.000,0.218,0.097,0.265,2.143,9.396,2.235,2.021
a,198462,0.000,0.000,36.000,-0.087,-0.193,-1.658,2.126,9.371,2.227,2.021
a,198466,0.000,0.000,36.000,-0.240,-0.071,-0.361,2.136,9.330,2.235,2.065
a,198470,0.000,0.000,36.000,0.004,-0.010,0.113,2.137,9.392,2.251,2.417
a,198475,0.000,0.000,36.000,0.004,0.112,-0.162,2.144,9.361,2.239,2.065
a,198479,0.000,0.000,36.000,0.020,-0.040,1.273,2.122,9.383,2.239,2.417
a,198482,0.000,0.000,36.000,-0.240,-0.055,-0.590,2.127,9.383,2.254,1.978
a,198487,0.000,0.000,36.000,0.096,-0.117,-1.139,2.146,9.395,2.261,2.109
a,198491,0.000,0.000,36.000,0.096,-0.101,-0.422,2.121,9.388,2.258,2.021
a,198494,0.000,0.000,36.000,0.035,-0.010,-0.300,2.119,9.371,2.218,2.373
a,198498,0.000,0.000,36.000,0.096,-0.071,-0.864,2.126,9.371,2.233,2.065
a,198502,0.000,0.000,36.000,-0.011,-0.193,0.479,2.128,9.363,2.229,2.065
a,198506,0.000,0.000,36.000,0.218,-0.223,0.220,2.142,9.373,2.248,1.978
a,198510,0.000,0.000,36.000,-0.011,-0.178,-1.048,2.124,9.372,2.234,2.065
a,198514,0.000,0.000,36.000,-0.286,-0.071,-0.773,2.127,9.374,2.257,2.021
a,198518,0.000,0.000,36.000,0.035,-0.010,-0.849,2.133,9.369,2.243,2.065
a,198522,0.000,0.000,36.000,-0.286,0.021,0.678,2.122,9.379,2.239,2.065
a,198526,0.000,0.000,36.000,0.004,0.021,0.464,2.152,9.369,2.243,2.065
a,198530,0.000,0.000,36.000,-0.164,-0.040,0.678,2.107,9.397,2.228,2.021
a,198535,0.000,0.000,36.000,-0.072,-0.055,-1.185,2.115,9.376,2.272,2.109
a,198538,0.000,0.000,36.000,-0.103,0.021,1.716,2.125,9.388,2.243,2.021
a,198542,0.000,0.000,36.000,0.111,0.006,0.204,2.101,9.372,2.245,2.065
a,198546,0.000,0.000,36.000,0.035,-0.086,0.907,2.121,9.366,2.225,2.021
a,198550,0.000,0.000,36.000,0.142,-0.147,0.998,2.134,9.388,2.212,2.065
a,198554,0.000,0.000,36.000,-0.118,-0.117,-0.849,2.121,9.407,2.224,2.021
a,198558,0.000,0.000,36.000,-0.270,-0.269,-0.147,2.119,9.377,2.248,2.021
a,198562,0.000,0.000,36.000,-0.011,-0.162,-0.361,2.113,9.369,2.239,2.021
a,198566,0.000,0.000,36.000,-0.011,0.036,-0.269,2.106,9.377,2.237,2.065
a,198570,0.000,0.000,36.000,0.218,-0.086,0.891,2.119,9.377,2.252,2.065
a,198574,0.000,0.000,36.000,-0.011,0.097,-0.376,2.137,9.389,2.235,2.065
a,198578,0.000,0.000,36.000,-0.103,-0.391,0.418,2.112,9.382,2.217,2.109
a,198582,0.000,0.000,36.000,-0.164,-0.208,0.189,2.112,9.386,2.247,2.065
a,198587,0.000,0.000,36.000,0.004,-0.117,0.235,2.114,9.370,2.222,2.065
a,198591,0.000,0.000,36.000,-0.072,0.006,-0.758,2.137,9.391,2.245,2.461
a,198594,0.000,0.000,36.000,0.126,-0.162,-0.315,2.144,9.372,2.239,2.021
a,198598,0.000,0.000,36.000,0.050,-0.117,0.143,2.119,9.408,2.221,2.109
a,198603,0.000,0.000,36.000,-0.057,-0.101,-0.025,2.103,9.384,2.247,2.021
a,198607,0.000,0.000,36.000,0.004,0.112,0.525,2.130,9.383,2.251,2.065
a,198610,0.000,0.000,36.000,-0.057,0.006,-0.101,2.122,9.383,2.248,2.461
a,198615,0.000,0.000,36.000,-0.270,0.051,0.968,2.130,9.374,2.212,2.065
a,198619,0.000,0.000,36.000,0.142,0.006,-1.475,2.121,9.370,2.247,2.021
a,198623,0.000,0.000,36.000,0.004,0.128,0.723,2.143,9.402,2.251,2.417
a,198627,0.000,0.000,36.000,-0.011,0.174,0.006,2.132,9.394,2.251,2.417
a,198631,0.000,0.000,36.000,0.111,-0.055,0.158,2.150,9.412,2.235,2.065
a,198635,0.000,0.000,36.000,0.126,-0.101,-0.590,2.132,9.370,2.239,2.373
a,198639,0.000,0.000,36.000,0.111,-0.040,0.769,2.127,9.372,2.243,2.461
a,198643,0.000,0.000,36.000,0.050,0.158,0.403,2.139,9.396,2.234,2.417
a,198646,0.000,0.000,36.000,-0.041,-0.269,1.502,2.131,9.378,2.218,2.065
a,198650,0.000,0.000,36.000,0.111,0.036,-0.101,2.133,9.386,2.206,2.021
a,198654,0.000,0.000,36.000,-0.011,0.051,0.067,2.137,9.398,2.239,2.065
a,198658,0.000,0.000,36.000,-0.057,0.036,-0.162,2.142,9.388,2.240,2.065
a,198662,0.000,0.000,36.000,0.157,-0.361,0.616,2.125,9.380,2.216,2.065
a,198666,0.000,0.000,36.000,0.111,0.097,-0.116,2.100,9.400,2.237,2.065
a,198670,0.000,0.000,36.000,-0.087,-0.101,-0.406,2.127,9.377,2.222,2.065
a,198674,0.000,0.000,36.000,0.020,-0.162,-0.406,2.119,9.383,2.248,2.065
a,198678,0.000,0.000,36.000,0.111,-0.162,-0.101,2.113,9.390,2.252,2.417
a,198682,0.000,0.000,36.000,0.004,-0.162,0.525,2.139,9.373,2.240,2.021
a,198686,0.000,0.000,36.000,0.004,0.006,0.220,2.097,9.352,2.251,2.417
a,198690,0.000,0.000,36.000,-0.041,-0.162,1.181,2.136,9.388,2.246,2.021
a,198694,0.000,0.000,36.000,0.050,-0.071,-0.071,2.151,9.376,2.246,2.065
a,198698,0.000,0.000,36.000,0.004,-0.284,0.296,2.133,9.367,2.234,2.021
a,198703,0.000,0.000,36.000,0.157,-0.071,0.021,2.130,9.378,2.249,2.109
a,198706,0.000,0.000,36.000,0.004,-0.178,0.342,2.114,9.391,2.221,2.065
a,198710,0.000,0.000,36.000,0.096,-0.055,0.311,2.112,9.409,2.247,2.109
a,198714,0.000,0.000,36.000,-0.011,-0.162,-0.635,2.116,9.397,2.248,2.065
a,198718,0.000,0.000,36.000,0.020,-0.101,1.197,2.145,9.378,2.246,2.417
a,198722,0.000,0.000,36.000,0.203,-0.055,-0.330,2.119,9.383,2.243,2.417
a,198726,0.000,0.000,36.000,0.004,-0.330,0.189,2.137,9.382,2.241,2.021
a,198730,0.000,0.000,36.000,-0.011,-0.147,0.861,2.127,9.377,2.245,2.065
a,198734,0.000,0.000,36.000,-0.240,0.204,0.784,2.119,9.371,2.228,2.065
a,198739,0.000,0.000,36.000,0.050,-0.208,0.540,2.149,9.392,2.257,2.417
a,198742,0.000,0.000,36.000,-0.087,-0.040,1.929,2.127,9.380,2.245,2.109
a,198746,0.000,0.000,36.000,-0.011,-0.101,-0.406,2.125,9.419,2.239,2.021
a,198750,0.000,0.000,36.000,-0.103,0.280,0.907,2.126,9.385,2.241,1.978
a,198754,0.000,0.000,36.000,0.050,0.265,0.067,2.103,9.391,2.234,2.417
a,198759,0.000,0.000,36.000,-0.057,-0.147,0.479,2.113,9.419,2.228,2.461
a,198763,0.000,0.000,36.000,0.203,-0.162,-0.544,2.138,9.376,2.254,2.065
a,198767,0.000,0.000,36.000,-0.225,0.204,-0.025,2.136,9.396,2.222,2.065
a,198770,0.000,0.000,36.000,0.142,-0.117,-1.032,2.145,9.400,2.246,2.021
a,198774,0.000,0.000,36.000,0.157,-0.071,0.189,2.114,9.376,2.241,2.021
a,198778,0.000,0.000,36.000,-0.011,-0.117,-0.406,2.121,9.364,2.234,2.065
a,198782,0.000,0.000,36.000,-0.118,-0.101,-0.574,2.137,9.366,2.237,2.065
a,198786,0.000,0.000,36.000,0.233,-0.208,1.441,2.126,9.370,2.253,2.109
a,198791,0.000,0.000,36.000,0.004,-0.117,-0.025,2.119,9.360,2.234,2.021
a,198794,0.000,0.000,36.000,0.279,0.189,0.494,2.127,9.409,2.251,2.065
a,198799,0.000,0.000,36.000,-0.087,-0.101,1.365,2.127,9.397,2.259,2.021
a,198802,0.000,0.000,36.000,0.065,-0.055,1.120,2.137,9.385,2.251,2.065
a,198806,0.000,0.000,36.000,-0.011,0.158,-1.032,2.137,9.406,2.246,2.065
a,198810,0.000,0.000,36.000,-0.057,0.021,0.723,2.113,9.376,2.241,2.065
a,198814,0.000,0.000,36.000,-0.118,0.219,-0.483,2.138,9.409,2.216,2.065
a,198818,0.000,0.000,36.000,-0.118,0.006,-0.040,2.144,9.376,2.212,2.065
a,198822,0.000,0.000,36.000,-0.057,-0.223,-0.132,2.133,9.382,2.224,2.021
a,198826,0.000,0.000,36.000,0.157,-0.284,0.189,2.130,9.382,2.227,2.065
a,198830,0.000,0.000,36.000,0.004,0.021,0.998,2.144,9.376,2.235,2.065
a,198834,0.000,0.000,36.000,0.004,-0.040,0.464,2.132,9.359,2.231,2.065
a,198838,0.000,0.000,36.000,-0.103,-0.178,0.143,2.151,9.385,2.240,2.065
a,198843,0.000,0.000,36.000,-0.011,-0.208,-0.956,2.119,9.380,2.245,2.373
a,198846,0.000,0.000,36.000,0.020,-0.055,1.731,2.118,9.384,2.235,2.373
a,198850,0.000,0.000,36.000,-0.057,-0.101,1.013,2.118,9.385,2.263,2.065
a,198854,0.000,0.000,36.000,-0.057,-0.071,0.250,2.124,9.386,2.243,2.109
a,198858,0.000,0.000,36.000,-0.072,-0.330,-0.468,2.139,9.389,2.230,2.021
a,198862,0.000,0.000,36.000,-0.087,-0.101,-1.231,2.116,9.390,2.215,2.065
a,198866,0.000,0.000,36.000,-0.072,-0.269,-0.849,2.138,9.380,2.251,2.417
a,198870,0.000,0.000,36.000,0.020,0.051,-0.376,2.119,9.372,2.229,2.065
a,198874,0.000,0.000,36.000,0.096,-0.010,-0.880,2.136,9.371,2.234,2.065
a,198878,0.000,0.000,36.000,-0.072,0.219,0.403,2.143,9.363,2.248,2.065
a,198882,0.000,0.000,36.000,-0.118,-0.284,-0.406,2.133,9.367,2.228,2.505
a,198887,0.000,0.000,36.000,-0.255,-0.208,-1.017,2.101,9.394,2.233,2.065
a,198890,0.000,0.000,36.000,-0.118,0.006,-0.758,2.119,9.379,2.231,2.373
a,198894,0.000,0.000,36.000,0.188,-0.101,-1.078,2.131,9.390,2.243,2.461
a,198898,0.000,0.000,36.000,0.020,-0.147,1.884,2.115,9.352,2.233,2.373
a,198902,0.000,0.000,36.000,0.020,0.067,1.594,2.127,9.397,2.254,2.417
a,198907,0.000,0.000,36.000,0.081,-0.101,-0.422,2.125,9.372,2.233,2.065
a,198911,0.000,0.000,36.000,-0.011,-0.193,0.800,2.122,9.384,2.248,2.065
a,198914,0.000,0.000,36.000,0.081,0.174,-1.048,2.115,9.395,2.231,2.065
a,198918,0.000,0.000,36.000,0.111,-0.040,0.769,2.107,9.383,2.241,2.065
a,198922,0.000,0.000,36.000,0.004,-0.208,0.342,2.112,9.363,2.248,2.417
a,198926,0.000,0.000,36.000,-0.118,-0.055,-0.315,2.119,9.370,2.233,2.065
a,198930,0.000,0.000,36.000,0.004,-0.071,0.250,2.143,9.397,2.230,2.021
a,198934,0.000,0.000,36.000,0.111,-0.071,0.006,2.112,9.367,2.261,2.065
a,198939,0.000,0.000,36.000,-0.057,0.112,0.464,2.142,9.388,2.227,2.461
a,198943,0.000,0.000,36.000,0.142,-0.178,-0.635,2.121,9.392,2.233,2.461
a,198946,0.000,0.000,36.000,-0.011,-0.117,-0.773,2.127,9.389,2.237,1.978
a,198951,0.000,0.000,36.000,-0.179,0.204,-0.635,2.102,9.374,2.228,2.065
a,198954,0.000,0.000,36.000,0.111,0.112,0.097,2.109,9.386,2.215,2.065
a,198958,0.000,0.000,36.000,-0.011,0.021,0.571,2.122,9.354,2.231,2.021
a,198962,0.000,0.000,36.000,0.050,0.174,0.952,2.118,9.402,2.253,2.065
a,198966,0.000,0.000,36.000,0.020,-0.101,1.563,2.145,9.384,2.228,2.109
a,198970,0.000,0.000,36.000,0.203,-0.055,-0.712,2.127,9.397,2.219,2.021
a,198974,0.000,0.000,36.000,-0.118,-0.117,-0.239,2.115,9.348,2.237,2.065
a,198978,0.000,0.000,36.000,0.188,0.128,-0.880,2.137,9.349,2.223,2.065
a,198982,0.000,0.000,36.000,0.050,-0.178,-0.025,2.114,9.364,2.240,2.065
a,198986,0.000,0.000,36.000,-0.041,0.189,1.059,2.097,9.369,2.228,2.065
a,198990,0.000,0.000,36.000,-0.087,0.021,-1.353,2.127,9.383,2.231,2.373
a,198995,0.000,0.000,36.000,-0.087,-0.055,-0.315,2.121,9.377,2.225,2.461
a,198998,0.000,0.000,36.000,0.035,-0.055,0.006,2.115,9.390,2.237,2.065
a,199002,0.000,0.000,36.000,-0.057,-0.071,-0.147,2.143,9.388,2.243,2.065
a,199006,0.000,0.000,36.000,0.035,0.006,0.067,2.127,9.380,2.229,2.021
a,199010,0.000,0.000,36.000,-0.072,0.006,0.067,2.127,9.394,2.245,2.065
a,199014,0.000,0.000,36.000,0.157,-0.162,0.281,2.125,9.376,2.243,2.021
a,199018,0.000,0.000,36.000,0.111,-0.040,0.555,2.132,9.370,2.239,2.373
a,199022,0.000,0.000,36.000,-0.072,0.112,-0.651,2.137,9.390,2.245,2.109
a,199026,0.000,0.000,36.000,0.050,-0.101,0.861,2.139,9.391,2.230,2.065
a,199030,0.000,0.000,36.000,0.004,0.006,0.784,2.112,9.396,2.222,2.461
a,199035,0.000,0.000,36.000,-0.057,0.204,0.006,2.126,9.363,2.240,2.461
a,199039,0.000,0.000,36.000,0.157,-0.071,0.189,2.136,9.383,2.227,2.461
a,199042,0.000,0.000,36.000,0.157,-0.315,-0.162,2.125,9.391,2.235,2.021
a,199046,0.000,0.000,36.000,-0.057,-0.055,0.922,2.115,9.385,2.237,2.065
a,199050,0.000,0.000,36.000,-0.118,-0.269,-1.231,2.128,9.376,2.225,2.109
a,199054,0.000,0.000,36.000,-0.118,0.112,-0.803,2.100,9.380,2.216,2.109
a,199059,0.000,0.000,36.000,0.035,-0.040,0.616,2.121,9.397,2.247,2.109
a,199063,0.000,0.000,36.000,0.035,-0.208,-0.406,2.131,9.416,2.251,2.417
a,199066,0.000,0.000,36.000,0.111,-0.040,0.555,2.143,9.397,2.252,2.065
a,199070,0.000,0.000,36.000,0.157,-0.117,-0.101,2.108,9.373,2.234,2.065
a,199074,0.000,0.000,36.000,-0.087,-0.055,-0.483,2.115,9.372,2.247,2.065
a,199078,0.000,0.000,36.000,0.096,-0.223,-0.651,2.149,9.373,2.224,2.065
a,199082,0.000,0.000,36.000,0.050,0.051,0.525,2.139,9.394,2.237,2.065
a,199086,0.000,0.000,36.000,-0.011,0.006,-0.101,2.115,9.401,2.237,2.065
a,199091,0.000,0.000,36.000,-0.011,-0.208,-1.124,2.148,9.377,2.228,2.461
a,199094,0.000,0.000,36.000,0.157,-0.300,0.464,2.128,9.366,2.267,2.065
a,199099,0.000,0.000,36.000,0.050,-0.101,0.479,2.127,9.363,2.240,2.417
a,199102,0.000,0.000,36.000,-0.164,-0.071,0.342,2.118,9.366,2.249,2.065
a,199106,0.000,0.000,36.000,-0.118,-0.010,-0.956,2.108,9.395,2.259,2.065
a,199110,0.000,0.000,36.000,0.142,-0.086,0.464,2.119,9.377,2.233,2.373
a,199114,0.000,0.000,36.000,-0.286,-0.025,0.952,2.113,9.394,2.229,2.065
a,199118,0.000,0.000,36.000,0.142,-0.101,-1.139,2.127,9.402,2.223,2.021
a,199122,0.000,0.000,36.000,0.020,-0.162,-0.635,2.131,9.383,2.225,2.021
a,199126,0.000,0.000,36.000,-0.057,-0.055,-0.208,2.127,9.390,2.229,1.978
a,199130,0.000,0.000,36.000,0.096,0.036,-1.307,2.096,9.392,2.228,2.065
a,199134,0.000,0.000,36.000,0.157,-0.284,0.326,2.139,9.349,2.237,2.021
a,199138,0.000,0.000,36.000,0.203,-0.117,-0.269,2.131,9.391,2.249,2.065
a,199142,0.000,0.000,36.000,-0.118,-0.162,-0.025,2.116,9.398,2.247,2.065
a,199147,0.000,0.000,36.000,-0.072,-0.055,-0.758,2.134,9.383,2.237,2.021
a,199150,0.000,0.000,36.000,0.004,-0.055,0.326,2.148,9.358,2.235,2.065
a,199154,0.000,0.000,36.000,0.279,-0.208,0.067,2.128,9.383,2.212,2.021
a,199158,0.000,0.000,36.000,-0.072,-0.178,-0.239,2.131,9.383,2.249,2.373
a,199162,0.000,0.000,36.000,-0.072,-0.208,0.189,2.127,9.388,2.264,2.065
a,199166,0.000,0.000,36.000,-0.057,-0.162,0.296,2.148,9.388,2.222,2.417
a,199170,0.000,0.000,36.000,0.218,-0.010,-0.116,2.131,9.388,2.233,2.065
a,199174,0.000,0.000,36.000,-0.164,0.204,0.281,2.130,9.384,2.243,2.417
a,199178,0.000,0.000,36.000,-0.057,-0.055,0.907,2.110,9.374,2.237,2.417
a,199182,0.000,0.000,36.000,0.096,-0.101,-0.101,2.163,9.386,2.233,2.065
a,199186,0.000,0.000,36.000,0.050,-0.178,0.036,2.143,9.365,2.233,2.021
a,199191,0.000,0.000,36.000,-0.087,-0.269,-0.635,2.137,9.409,2.257,2.373
a,199194,0.000,0.000,36.000,0.081,-0.101,-0.422,2.121,9.397,2.235,2.417
a,199198,0.000,0.000,36.000,0.004,0.051,0.113,2.125,9.376,2.257,2.065
a,199202,0.000,0.000,36.000,-0.011,0.067,-0.208,2.137,9.385,2.239,2.109
a,199206,0.000,0.000,36.000,0.081,-0.254,-0.315,2.119,9.410,2.237,2.461
a,199211,0.000,0.000,36.000,0.004,0.006,0.723,2.115,9.360,2.215,2.065
a,199215,0.000,0.000,36.000,-0.057,-0.162,0.235,2.122,9.383,2.228,2.109
a,199218,0.000,0.000,36.000,-0.179,-0.178,-0.345,2.112,9.365,2.246,2.461
a,199222,0.000,0.000,36.000,0.004,0.189,0.510,2.106,9.394,2.229,2.021
a,199226,0.000,0.000,36.000,-0.057,-0.101,0.021,2.134,9.376,2.243,2.065
a,199230,0.000,0.000,36.000,0.096,-0.162,-0.162,2.134,9.354,2.243,2.065
a,199234,0.000,0.000,36.000,0.081,-0.208,-1.185,2.132,9.386,2.239,2.417
a,199239,0.000,0.000,36.000,0.111,-0.040,0.494,2.119,9.384,2.229,2.417
a,199242,0.000,0.000,36.000,0.142,-0.071,-0.590,2.142,9.363,2.255,2.109
a,199247,0.000,0.000,36.000,-0.026,-0.269,-0.635,2.127,9.394,2.251,2.109
a,199250,0.000,0.000,36.000,0.004,-0.071,0.342,2.099,9.395,2.253,2.417
a,199254,0.000,0.000,36.000,-0.255,-0.055,-0.422,2.131,9.401,2.231,2.065
a,199258,0.000,0.000,36.000,0.004,0.067,0.845,2.132,9.366,2.228,2.417
a,199262,0.000,0.000,36.000,-0.011,-0.162,0.342,2.144,9.401,2.241,2.021
a,199266,0.000,0.000,36.000,0.004,-0.254,0.693,2.131,9.359,2.237,2.021
a,199270,0.000,0.000,36.000,0.096,0.112,-1.536,2.128,9.377,2.245,2.373
a,199274,0.000,0.000,36.000,0.111,0.097,0.204,2.139,9.377,2.241,2.065
a,199278,0.000,0.000,36.000,-0.118,0.006,-0.315,2.119,9.341,2.235,2.109
a,199282,0.000,0.000,36.000,-0.118,0.006,-0.483,2.131,9.397,2.231,2.373
a,199286,0.000,0.000,36.000,0.035,-0.040,0.464,2.125,9.397,2.217,2.021
a,199290,0.000,0.000,36.000,-0.011,-0.147,0.189,2.116,9.374,2.233,2.021
a,199294,0.000,0.000,36.000,0.020,-0.162,-0.361,2.100,9.373,2.258,2.021
a,199299,0.000,0.000,36.000,-0.087,0.006,-0.651,2.109,9.384,2.248,2.109
a,199302,0.000,0.000,36.000,-0.011,0.067,0.723,2.122,9.377,2.231,2.417
a,199306,0.000,0.000,36.000,0.142,-0.284,-0.910,2.112,9.385,2.234,2.021
a,199310,0.000,0.000,36.000,0.020,-0.162,-0.788,2.138,9.354,2.235,2.461
a,199314,0.000,0.000,36.000,-0.133,-0.101,-0.254,2.122,9.388,2.206,2.065
a,199318,0.000,0.000,36.000,-0.011,-0.208,-0.300,2.119,9.358,2.225,2.021
a,199322,0.000,0.000,36.000,-0.011,-0.162,-0.406,2.112,9.383,2.223,2.417
a,199326,0.000,0.000,36.000,0.111,0.051,0.265,2.127,9.398,2.243,2.021
a,199330,0.000,0.000,36.000,-0.133,0.051,-0.651,2.125,9.383,2.228,2.065
a,199334,0.000,0.000,36.000,0.126,-0.162,-0.758,2.125,9.397,2.215,2.065
a,199339,0.000,0.000,36.000,0.126,-0.040,-0.834,2.088,9.391,2.241,2.373
a,199343,0.000,0.000,36.000,-0.041,0.189,1.105,2.121,9.334,2.237,2.109
a,199346,0.000,0.000,36.000,0.111,0.143,1.136,2.128,9.395,2.217,2.417
a,199350,0.000,0.000,36.000,0.111,-0.071,0.281,2.126,9.357,2.263,2.021
a,199355,0.000,0.000,36.000,-0.057,-0.193,0.800,2.119,9.354,2.235,2.065
a,199358,0.000,0.000,36.000,-0.133,0.051,-0.651,2.131,9.373,2.252,2.065
a,199362,0.000,0.000,36.000,-0.072,-0.162,-0.147,2.131,9.413,2.235,2.065
a,199367,0.000,0.000,36.000,0.096,-0.223,-0.269,2.145,9.391,2.248,2.417
a,199371,0.000,0.000,36.000,0.050,0.036,-0.101,2.112,9.406,2.224,2.021
a,199374,0.000,0.000,36.000,0.050,-0.147,1.945,2.121,9.430,2.222,2.065
a,199378,0.000,0.000,36.000,0.035,0.235,0.510,2.128,9.402,2.243,2.065
a,199382,0.000,0.000,36.000,-0.179,-0.254,0.525,2.128,9.379,2.247,2.417
a,199387,0.000,0.000,36.000,-0.164,-0.071,-0.193,2.131,9.385,2.233,2.065
a,199391,0.000,0.000,36.000,0.035,-0.284,0.861,2.122,9.354,2.229,2.021
a,199395,0.000,0.000,36.000,0.050,0.021,0.723,2.131,9.398,2.243,2.109
a,199399,0.000,0.000,36.000,-0.011,-0.315,-0.300,2.119,9.390,2.248,2.065
a,199402,0.000,0.000,36.000,-0.011,-0.101,-0.254,2.125,9.352,2.233,2.065
a,199406,0.000,0.000,36.000,0.020,-0.162,-0.254,2.134,9.408,2.228,2.021
a,199410,0.000,0.000,36.000,-0.133,0.051,-0.376,2.140,9.386,2.241,2.109
a,199414,0.000,0.000,36.000,-0.225,-0.055,-0.162,2.119,9.372,2.233,2.021
a,199418,0.000,0.000,36.000,-0.057,-0.162,0.235,2.115,9.383,2.239,2.065
a,199422,0.000,0.000,36.000,-0.072,-0.300,0.693,2.119,9.388,2.225,2.417
a,199426,0.000,0.000,36.000,0.096,0.006,-0.666,2.131,9.384,2.233,2.065
a,199430,0.000,0.000,36.000,-0.057,-0.101,-0.086,2.109,9.373,2.245,2.109
a,199434,0.000,0.000,36.000,0.310,-0.208,0.067,2.116,9.391,2.231,2.021
a,199438,0.000,0.000,36.000,-0.072,0.036,-0.910,2.115,9.366,2.234,2.065
a,199443,0.000,0.000,36.000,0.004,-0.086,1.670,2.131,9.407,2.223,2.021
a,199446,0.000,0.000,36.000,0.126,0.051,1.151,2.131,9.395,2.255,2.065
a,199450,0.000,0.000,36.000,-0.011,-0.208,-0.574,2.138,9.379,2.270,2.065
a,199454,0.000,0.000,36.000,-0.072,-0.208,-0.147,2.121,9.391,2.235,2.417
a,199458,0.000,0.000,36.000,0.096,-0.162,-0.101,2.115,9.379,2.245,2.065
a,199462,0.000,0.000,36.000,-0.011,-0.147,0.403,2.119,9.377,2.229,2.373
a,199466,0.000,0.000,36.000,0.035,-0.086,0.479,2.119,9.388,2.245,2.461
a,199470,0.000,0.000,36.000,-0.011,-0.178,-0.574,2.130,9.414,2.248,2.065
a,199474,0.000,0.000,36.000,0.142,0.112,-0.010,2.131,9.402,2.241,2.065
a,199478,0.000,0.000,36.000,0.004,-0.101,0.128,2.109,9.366,2.241,2.021
a,199482,0.000,0.000,36.000,0.142,0.051,-0.330,2.154,9.383,2.267,2.021
a,199486,0.000,0.000,36.000,0.111,0.067,1.197,2.116,9.327,2.235,2.021
a,199491,0.000,0.000,36.000,0.020,0.296,1.105,2.125,9.348,2.229,2.417
a,199494,0.000,0.000,36.000,0.157,-0.193,0.616,2.131,9.359,2.258,2.065
a,199498,0.000,0.000,36.000,0.157,-0.010,0.113,2.084,9.378,2.237,2.021
a,199502,0.000,0.000,36.000,0.111,-0.101,0.723,2.119,9.391,2.243,2.065
a,199506,0.000,0.000,36.000,-0.087,-0.101,-1.124,2.116,9.398,2.241,2.065
a,199511,0.000,0.000,36.000,-0.133,0.051,-0.269,2.112,9.386,2.225,2.021
a,199515,0.000,0.000,36.000,-0.240,-0.071,-0.788,2.110,9.374,2.233,2.417
a,199518,0.000,0.000,36.000,-0.072,0.021,0.616,2.119,9.384,2.237,2.109
a,199522,0.000,0.000,36.000,-0.118,0.051,0.006,2.125,9.373,2.245,2.065
a,199526,0.000,0.000,36.000,0.020,0.006,-0.269,2.125,9.376,2.245,2.109
a,199530,0.000,0.000,36.000,0.096,-0.055,-0.559,2.109,9.373,2.241,2.417
a,199534,0.000,0.000,36.000,-0.148,-0.376,1.074,2.114,9.366,2.246,2.373
a,199539,0.000,0.000,36.000,0.218,-0.117,0.189,2.121,9.378,2.237,2.065
a,199542,0.000,0.000,36.000,0.111,0.067,1.151,2.148,9.380,2.225,2.065
a,199547,0.000,0.000,36.000,-0.019,-0.098,0.060,2.143,9.407,2.231,2.021
a,199551,0.000,0.000,36.000,-0.080,-0.113,-0.871,2.131,9.394,2.248,2.417
a,199554,0.000,0.000,36.000,-0.003,-0.113,0.564,2.137,9.418,2.233,2.021
a,199558,0.000,0.000,36.000,-0.187,0.086,-0.504,2.161,9.388,2.243,2.021
a,199562,0.000,0.000,36.000,-0.019,-0.098,0.213,2.121,9.415,2.237,2.417
a,199566,0.000,0.000,36.000,-0.034,-0.006,-0.336,2.143,9.388,2.233,2.461
a,199570,0.000,0.000,36.000,0.103,0.101,0.381,2.124,9.382,2.251,2.065
a,199574,0.000,0.000,36.000,-0.095,-0.113,1.435,2.126,9.335,2.234,2.065
a,199578,0.000,0.000,36.000,-0.126,0.101,0.381,2.122,9.379,2.248,2.065
a,199582,0.000,0.000,36.000,-0.019,0.070,0.763,2.132,9.379,2.233,2.021
a,199586,0.000,0.000,36.000,0.088,-0.052,-0.443,2.119,9.394,2.235,2.065
a,199590,0.000,0.000,36.000,0.073,-0.006,-0.581,2.122,9.377,2.223,2.417
a,199594,0.000,0.000,36.000,0.180,-0.143,-0.336,2.125,9.383,2.245,2.373
a,199599,0.000,0.000,36.000,0.149,-0.220,-0.230,2.138,9.404,2.257,2.065
a,199602,0.000,0.000,36.000,0.180,-0.143,-0.733,2.143,9.355,2.229,2.065
a,199606,0.000,0.000,36.000,-0.187,0.131,0.656,2.119,9.376,2.243,2.065
a,199610,0.000,0.000,36.000,0.195,-0.021,-0.596,2.126,9.392,2.224,2.065
a,199614,0.000,0.000,36.000,-0.126,-0.006,0.259,2.127,9.383,2.239,2.021
a,199618,0.000,0.000,36.000,0.088,0.162,0.183,2.128,9.384,2.251,2.065
a,199622,0.000,0.000,36.000,-0.187,-0.037,0.564,2.128,9.401,2.228,2.021
a,199626,0.000,0.000,36.000,0.088,-0.067,-0.779,2.118,9.349,2.218,2.065
a,199630,0.000,0.000,36.000,-0.019,0.177,0.976,2.112,9.395,2.254,2.021
a,199635,0.000,0.000,36.000,0.012,-0.113,-0.382,2.122,9.334,2.260,2.065
a,199639,0.000,0.000,36.000,0.103,-0.205,0.442,2.112,9.383,2.231,2.065
a,199642,0.000,0.000,36.000,0.149,-0.052,0.870,2.130,9.378,2.255,2.065
a,199646,0.000,0.000,36.000,0.149,0.101,-0.199,2.131,9.361,2.222,2.021
a,199650,0.000,0.000,36.000,0.134,-0.113,-0.184,2.119,9.386,2.251,2.065
a,199654,0.000,0.000,36.000,-0.095,-0.159,-0.871,2.131,9.376,2.233,2.065
a,199659,0.000,0.000,36.000,0.119,0.070,-1.176,2.122,9.390,2.212,2.373
a,199663,0.000,0.000,36.000,0.042,-0.037,0.717,2.144,9.370,2.235,2.109
a,199667,0.000,0.000,36.000,0.012,-0.205,-0.657,2.144,9.397,2.239,2.065
a,199670,0.000,0.000,36.000,0.210,-0.098,0.656,2.112,9.355,2.251,2.065
a,199674,0.000,0.000,36.000,-0.003,-0.113,0.396,2.116,9.380,2.231,2.065
a,199678,0.000,0.000,36.000,-0.080,0.040,-0.672,2.118,9.392,2.237,2.021
a,199682,0.000,0.000,36.000,0.149,-0.159,0.702,2.100,9.407,2.224,1.978
a,199687,0.000,0.000,36.000,0.073,0.177,-0.581,2.132,9.382,2.216,2.461
a,199690,0.000,0.000,36.000,-0.080,-0.143,0.717,2.121,9.395,2.254,2.373
a,199694,0.000,0.000,36.000,0.134,-0.143,-0.184,2.127,9.371,2.248,2.109
a,199699,0.000,0.000,36.000,0.027,-0.143,-0.169,2.112,9.397,2.228,2.065
a,199702,0.000,0.000,36.000,-0.003,-0.021,-0.214,2.126,9.359,2.257,2.065
a,199706,0.000,0.000,36.000,0.042,-0.113,0.457,2.118,9.382,2.248,2.065
a,199710,0.000,0.000,36.000,-0.003,-0.220,0.106,2.137,9.380,2.247,2.065
a,199714,0.000,0.000,36.000,0.012,0.070,-0.504,2.134,9.365,2.245,2.021
a,199718,0.000,0.000,36.000,0.195,0.070,-0.199,2.119,9.372,2.241,2.065
a,199722,0.000,0.000,36.000,0.012,0.162,-0.672,2.115,9.380,2.248,2.021
a,199726,0.000,0.000,36.000,0.195,0.116,0.427,2.140,9.384,2.248,2.065
a,199730,0.000,0.000,36.000,-0.003,-0.128,-0.107,2.142,9.366,2.230,2.065
a,199734,0.000,0.000,36.000,-0.187,0.009,0.442,2.127,9.366,2.247,2.021
a,199738,0.000,0.000,36.000,-0.080,0.055,-0.779,2.137,9.386,2.251,2.109
a,199742,0.000,0.000,36.000,0.027,-0.235,-0.321,2.126,9.410,2.234,2.065
a,199746,0.000,0.000,36.000,-0.126,0.086,0.976,2.128,9.386,2.233,2.021
a,199751,0.000,0.000,36.000,-0.080,0.009,0.488,2.127,9.386,2.237,2.065
a,199754,0.000,0.000,36.000,-0.110,0.101,0.564,2.110,9.422,2.233,2.021
a,199758,0.000,0.000,36.000,-0.141,0.070,-0.291,2.143,9.364,2.235,2.065
a,199763,0.000,0.000,36.000,0.027,-0.006,-0.718,2.150,9.398,2.247,2.109
a,199766,0.000,0.000,36.000,-0.080,-0.220,-0.550,2.119,9.397,2.231,1.978
a,199770,0.000,0.000,36.000,-0.049,-0.159,2.030,2.137,9.373,2.224,2.417
a,199774,0.000,0.000,36.000,-0.019,-0.052,-0.214,2.146,9.394,2.237,1.978
a,199778,0.000,0.000,36.000,-0.065,-0.113,0.564,2.118,9.385,2.241,2.065
a,199782,0.000,0.000,36.000,0.256,0.223,-0.031,2.125,9.380,2.243,2.065
a,199786,0.000,0.000,36.000,-0.171,0.070,0.824,2.103,9.386,2.243,2.065
a,199791,0.000,0.000,36.000,0.210,-0.052,0.198,2.131,9.379,2.264,2.065
a,199794,0.000,0.000,36.000,0.088,0.009,0.473,2.131,9.397,2.229,2.065
a,199798,0.000,0.000,36.000,-0.034,0.177,-0.993,2.154,9.412,2.231,2.373
a,199802,0.000,0.000,36.000,-0.080,0.070,0.824,2.121,9.377,2.248,2.065
a,199806,0.000,0.000,36.000,-0.110,-0.128,-0.199,2.118,9.408,2.249,2.065
a,199810,0.000,0.000,36.000,0.088,-0.021,0.488,2.131,9.403,2.245,2.065
a,199815,0.000,0.000,36.000,0.042,-0.205,0.671,2.134,9.395,2.231,2.065
a,199819,0.000,0.000,36.000,-0.156,-0.052,1.389,2.121,9.354,2.235,2.021
a,199822,0.000,0.000,36.000,-0.080,0.040,-0.596,2.142,9.392,2.234,2.417
a,199826,0.000,0.000,36.000,0.103,0.009,0.747,2.131,9.386,2.239,2.109
a,199830,0.000,0.000,36.000,-0.110,-0.174,0.076,2.100,9.347,2.218,2.417
a,199834,0.000,0.000,36.000,-0.080,-0.220,-0.764,2.152,9.364,2.228,2.021
a,199839,0.000,0.000,36.000,-0.003,-0.159,0.992,2.112,9.373,2.253,2.417
a,199842,0.000,0.000,36.000,0.103,-0.052,-0.184,2.109,9.398,2.219,2.417
a,199847,0.000,0.000,36.000,0.134,-0.388,-0.336,2.134,9.363,2.251,2.065
a,199850,0.000,0.000,36.000,-0.019,0.116,-0.230,2.134,9.404,2.239,2.373
a,199854,0.000,0.000,36.000,0.012,-0.250,-1.268,2.160,9.395,2.209,2.065
a,199858,0.000,0.000,36.000,0.103,-0.159,-0.062,2.132,9.384,2.270,2.021
a,199862,0.000,0.000,36.000,-0.095,0.055,-0.672,2.103,9.379,2.237,2.373
a,199866,0.000,0.000,36.000,-0.003,-0.037,0.610,2.132,9.386,2.237,2.065
a,199870,0.000,0.000,36.000,-0.034,0.055,-1.314,2.103,9.398,2.245,2.021
a,199874,0.000,0.000,36.000,0.042,0.238,1.419,2.134,9.380,2.251,2.065
a,199878,0.000,0.000,36.000,-0.126,-0.006,-0.718,2.112,9.369,2.239,1.978
a,199882,0.000,0.000,36.000,-0.126,0.086,-0.718,2.115,9.392,2.253,2.021
a,199886,0.000,0.000,36.000,-0.141,-0.159,-0.275,2.119,9.386,2.239,2.065
a,199890,0.000,0.000,36.000,0.180,-0.266,-0.398,2.113,9.372,2.251,2.021
a,199894,0.000,0.000,36.000,-0.019,-0.128,0.457,2.150,9.410,2.231,2.021
a,199898,0.000,0.000,36.000,-0.080,-0.052,0.396,2.119,9.377,2.241,2.065
a,199903,0.000,0.000,36.000,-0.080,-0.235,-0.428,2.127,9.359,2.228,2.065
a,199906,0.000,0.000,36.000,0.103,0.070,0.961,2.127,9.390,2.235,2.065
a,199910,0.000,0.000,36.000,-0.034,-0.052,-0.382,2.116,9.366,2.248,2.021
a,199914,0.000,0.000,36.000,-0.019,-0.052,-0.489,2.138,9.386,2.231,2.021
a,199918,0.000,0.000,36.000,-0.080,-0.159,0.167,2.115,9.354,2.233,2.417
a,199922,0.000,0.000,36.000,-0.019,0.086,0.488,2.128,9.386,2.217,2.021
a,199926,0.000,0.000,36.000,-0.034,0.070,-1.100,2.140,9.390,2.225,2.021
a,199930,0.000,0.000,36.000,0.195,-0.266,-0.443,2.137,9.372,2.248,2.021
a,199935,0.000,0.000,36.000,-0.034,-0.113,-0.550,2.097,9.355,2.217,2.065
a,199939,0.000,0.000,36.000,0.027,-0.342,-0.275,2.127,9.378,2.228,2.109
a,199942,0.000,0.000,36.000,0.195,-0.113,-0.398,2.128,9.372,2.237,2.065
a,199946,0.000,0.000,36.000,-0.080,-0.174,-0.474,2.119,9.378,2.230,2.109
a,199950,0.000,0.000,36.000,0.256,-0.174,-0.443,2.127,9.384,2.248,2.021
a,199954,0.000,0.000,36.000,-0.049,-0.220,-1.588,2.127,9.391,2.233,2.373
a,199959,0.000,0.000,36.000,0.210,-0.220,0.763,2.119,9.370,2.243,2.109
a,199963,0.000,0.000,36.000,0.180,0.055,-0.688,2.122,9.402,2.204,2.373
a,199966,0.000,0.000,36.000,-0.065,-0.220,-0.107,2.096,9.422,2.251,2.065
a,199970,0.000,0.000,36.000,0.073,-0.113,-0.336,2.131,9.359,2.243,2.065
a,199974,0.000,0.000,36.000,0.058,-0.098,1.541,2.127,9.373,2.243,2.021
a,199978,0.000,0.000,36.000,0.119,0.116,1.511,2.116,9.366,2.257,2.021
a,199982,0.000,0.000,36.000,-0.095,-0.052,-0.596,2.134,9.388,2.247,2.417
a,199987,0.000,0.000,36.000,0.134,0.101,-0.306,2.121,9.372,2.239,2.021
a,199991,0.000,0.000,36.000,0.103,-0.235,-0.184,2.126,9.403,2.215,2.065
a,199994,0.000,0.000,36.000,0.058,-0.037,1.480,2.121,9.404,2.225,2.109
a,199999,0.000,0.000,36.000,-0.248,-0.327,-0.764,2.100,9.394,2.239,2.065
a,200002,0.000,0.000,36.000,-0.232,0.040,0.198,2.121,9.400,2.233,2.065
a,200006,0.000,0.000,36.000,0.042,0.070,0.656,2.144,9.397,2.231,2.021
a,200010,0.000,0.000,36.000,0.103,0.101,-0.031,2.137,9.379,2.231,2.021
a,200014,0.000,0.000,36.000,-0.019,0.009,0.259,2.112,9.403,2.237,2.021
a,200018,0.000,0.000,36.000,0.088,-0.143,0.824,2.112,9.398,2.237,2.065
a,200022,0.000,0.000,36.000,0.012,-0.006,-0.291,2.128,9.398,2.235,2.373
a,200026,0.000,0.000,36.000,-0.141,-0.220,-0.810,2.103,9.359,2.247,2.021
a,200030,0.000,0.000,36.000,-0.141,-0.006,-0.718,2.128,9.363,2.239,1.978
a,200034,0.000,0.000,36.000,-0.019,0.238,0.824,2.116,9.345,2.222,2.417
a,200038,0.000,0.000,36.000,-0.019,0.009,-0.123,2.134,9.408,2.203,2.065
a,200043,0.000,0.000,36.000,-0.110,0.070,0.763,2.107,9.395,2.235,2.109
a,200046,0.000,0.000,36.000,-0.065,-0.174,-0.214,2.131,9.403,2.241,2.065
a,200050,0.000,0.000,36.000,0.103,-0.174,0.305,2.124,9.400,2.255,2.065
a,200054,0.000,0.000,36.000,-0.019,-0.052,0.106,2.109,9.376,2.252,2.065
a,200058,0.000,0.000,36.000,-0.019,-0.143,0.060,2.127,9.382,2.245,2.065
a,200062,0.000,0.000,36.000,-0.126,0.009,0.656,2.116,9.379,2.245,2.021
a,200066,0.000,0.000,36.000,-0.065,-0.098,1.373,2.122,9.395,2.254,2.065
a,200070,0.000,0.000,36.000,-0.126,0.086,0.656,2.138,9.376,2.241,2.461
a,200074,0.000,0.000,36.000,-0.080,0.024,0.427,2.121,9.364,2.231,2.021
a,200078,0.000,0.000,36.000,0.088,-0.220,0.305,2.113,9.388,2.237,2.109
a,200082,0.000,0.000,36.000,0.119,-0.006,-0.520,2.119,9.352,2.223,2.065
a,200087,0.000,0.000,36.000,-0.126,-0.205,0.992,2.107,9.401,2.243,2.065
a,200090,0.000,0.000,36.000,0.195,0.040,-0.459,2.115,9.346,2.234,2.109
a,200094,0.000,0.000,36.000,0.012,-0.037,1.373,2.138,9.376,2.219,2.065
a,200098,0.000,0.000,36.000,-0.080,0.086,-1.298,2.121,9.360,2.212,2.021
a,200103,0.000,0.000,36.000,-0.003,-0.098,1.587,2.119,9.372,2.254,2.065
a,200106,0.000,0.000,36.000,-0.003,-0.113,0.778,2.131,9.391,2.235,2.021
a,200111,0.000,0.000,36.000,0.012,-0.098,1.099,2.122,9.394,2.231,2.417
a,200114,0.000,0.000,36.000,0.073,-0.143,-0.291,2.113,9.390,2.243,2.065
a,200119,0.000,0.000,36.000,-0.095,0.070,2.060,2.122,9.373,2.241,2.065
a,200122,0.000,0.000,36.000,0.012,0.116,-1.436,2.112,9.365,2.228,2.021
a,200126,0.000,0.000,36.000,0.088,0.162,0.076,2.122,9.395,2.263,2.065
a,200130,0.000,0.000,36.000,-0.095,0.055,-0.398,2.143,9.394,2.237,2.109
a,200134,0.000,0.000,36.000,0.088,0.223,0.183,2.119,9.402,2.243,1.934
a,200139,0.000,0.000,36.000,-0.126,-0.159,0.213,2.131,9.384,2.241,2.021
a,200142,0.000,0.000,36.000,0.119,-0.113,1.190,2.136,9.389,2.234,2.065
a,200146,0.000,0.000,36.000,0.164,0.177,1.679,2.143,9.402,2.219,2.021
a,200151,0.000,0.000,36.000,0.042,-0.220,0.274,2.131,9.384,2.263,2.065
a,200154,0.000,0.000,36.000,-0.110,-0.128,0.213,2.121,9.392,2.235,2.021
a,200158,0.000,0.000,36.000,-0.003,0.147,-0.062,2.119,9.367,2.248,2.065
a,200162,0.000,0.000,36.000,0.027,-0.037,0.717,2.138,9.349,2.228,2.065
a,200166,0.000,0.000,36.000,-0.141,0.055,-0.443,2.106,9.419,2.216,2.021
a,200170,0.000,0.000,36.000,0.180,-0.159,-0.672,2.121,9.395,2.229,2.021
a,200174,0.000,0.000,36.000,0.012,0.055,-0.336,2.138,9.373,2.229,2.021
a,200178,0.000,0.000,36.000,-0.126,0.024,0.870,2.144,9.397,2.222,2.021
a,200182,0.000,0.000,36.000,0.073,-0.098,-0.504,2.121,9.383,2.264,2.417
a,200186,0.000,0.000,36.000,0.027,0.024,0.595,2.132,9.408,2.251,2.065
a,200190,0.000,0.000,36.000,-0.126,-0.067,-0.596,2.108,9.345,2.253,2.065
a,200194,0.000,0.000,36.000,-0.126,0.009,0.931,2.122,9.390,2.237,2.065
a,200198,0.000,0.000,36.000,-0.019,-0.082,0.717,2.128,9.382,2.272,2.065
a,200203,0.000,0.000,36.000,0.195,-0.327,-0.611,2.122,9.343,2.245,2.021
a,200206,0.000,0.000,36.000,-0.049,-0.037,1.205,2.121,9.373,2.219,2.109
a,200210,0.000,0.000,36.000,-0.095,0.208,-1.802,2.119,9.383,2.264,2.373
a,200214,0.000,0.000,36.000,-0.126,-0.082,0.503,2.138,9.383,2.239,2.021
a,200218,0.000,0.000,36.000,-0.003,0.086,0.091,2.145,9.396,2.241,1.978
a,200222,0.000,0.000,36.000,-0.065,-0.098,0.992,2.128,9.361,2.216,2.065
a,200226,0.000,0.000,36.000,-0.278,-0.220,0.396,2.148,9.383,2.270,2.021
a,200230,0.000,0.000,36.000,0.088,-0.250,0.763,2.109,9.348,2.222,2.065
a,200234,0.000,0.000,36.000,-0.080,0.055,-0.565,2.121,9.384,2.241,2.065
a,200239,0.000,0.000,36.000,0.027,0.253,0.549,2.116,9.390,2.241,2.021
a,200243,0.000,0.000,36.000,-0.416,0.284,-0.779,2.140,9.371,2.260,2.417
a,200246,0.000,0.000,36.000,0.088,0.070,-0.245,2.125,9.371,2.251,1.978
a,200250,0.000,0.000,36.000,0.134,-0.098,-0.138,2.127,9.388,2.243,2.065
a,200254,0.000,0.000,36.000,-0.034,-0.037,-0.489,2.146,9.347,2.252,2.065
a,200258,0.000,0.000,36.000,0.027,0.055,-0.886,2.150,9.376,2.237,2.065
a,200263,0.000,0.000,36.000,-0.003,0.086,1.847,2.138,9.396,2.233,2.417
a,200267,0.000,0.000,36.000,-0.187,0.086,0.763,2.134,9.385,2.248,2.065
a,200270,0.000,0.000,36.000,-0.095,-0.098,-0.275,2.132,9.390,2.223,2.065
a,200274,0.000,0.000,36.000,0.103,-0.220,0.152,2.121,9.398,2.216,2.021
a,200278,0.000,0.000,36.000,-0.171,0.162,0.976,2.133,9.374,2.228,2.065
a,200282,0.000,0.000,36.000,0.134,0.055,-0.840,2.137,9.398,2.231,2.065
a,200286,0.000,0.000,36.000,0.226,-0.006,1.312,2.151,9.380,2.235,2.065
a,200291,0.000,0.000,36.000,-0.187,-0.006,0.305,2.122,9.391,2.245,2.461
a,200294,0.000,0.000,36.000,-0.110,0.177,1.358,2.144,9.394,2.247,2.021
a,200299,0.000,0.000,36.000,0.134,-0.235,0.702,2.115,9.367,2.229,2.417
a,200302,0.000,0.000,36.000,-0.019,0.101,0.259,2.138,9.424,2.243,2.109
a,200306,0.000,0.000,36.000,-0.339,-0.128,0.274,2.145,9.406,2.249,2.065
a,200310,0.000,0.000,36.000,0.210,-0.220,0.152,2.131,9.333,2.257,2.417
a,200314,0.000,0.000,36.000,0.302,-0.067,-0.550,2.146,9.397,2.243,2.021
a,200318,0.000,0.000,36.000,0.027,0.009,0.976,2.122,9.370,2.233,2.109
a,200322,0.000,0.000,36.000,0.027,0.070,0.870,2.132,9.372,2.231,2.021
a,200326,0.000,0.000,36.000,0.058,-0.174,-1.802,2.140,9.383,2.251,2.417
a,200330,0.000,0.000,36.000,-0.217,-0.128,-2.123,2.144,9.404,2.247,2.021
a,200334,0.000,0.000,36.000,-0.065,-0.082,1.160,2.127,9.389,2.251,2.021
a,200338,0.000,0.000,36.000,0.042,0.055,0.305,2.119,9.380,2.215,2.021
a,200342,0.000,0.000,36.000,0.073,-0.037,-0.291,2.113,9.353,2.263,2.021
a,200346,0.000,0.000,36.000,0.103,0.055,0.747,2.131,9.377,2.241,2.065
a,200350,0.000,0.000,36.000,-0.110,0.177,0.488,2.119,9.363,2.245,2.065
a,200355,0.000,0.000,36.000,0.027,-0.067,-0.596,2.110,9.348,2.253,2.065
a,200358,0.000,0.000,36.000,-0.095,0.116,1.572,2.128,9.369,2.219,2.065
a,200362,0.000,0.000,36.000,0.149,0.116,0.580,2.134,9.373,2.251,2.417
a,200366,0.000,0.000,36.000,0.195,-0.098,-0.062,2.119,9.364,2.241,2.461
a,200370,0.000,0.000,36.000,-0.034,0.009,-0.779,2.116,9.394,2.228,2.065
a,200374,0.000,0.000,36.000,0.042,0.253,1.557,2.115,9.402,2.263,2.021
a,200378,0.000,0.000,36.000,0.042,-0.113,0.320,2.137,9.409,2.251,2.065
a,200382,0.000,0.000,36.000,-0.019,-0.388,-0.046,2.128,9.397,2.243,2.417
a,200386,0.000,0.000,36.000,0.103,-0.174,0.106,2.112,9.382,2.249,2.109
a,200391,0.000,0.000,36.000,-0.126,-0.266,-1.298,2.132,9.380,2.229,2.065
a,200394,0.000,0.000,36.000,-0.080,-0.037,0.320,2.128,9.382,2.235,2.021
a,200398,0.000,0.000,36.000,-0.126,0.177,0.549,2.122,9.421,2.228,2.373
a,200402,0.000,0.000,36.000,0.042,0.009,0.702,2.137,9.394,2.233,2.021
a,200406,0.000,0.000,36.000,-0.339,0.070,0.488,2.121,9.376,2.245,2.021
a,200411,0.000,0.000,36.000,0.088,0.055,-0.138,2.132,9.390,2.235,2.461
a,200415,0.000,0.000,36.000,-0.080,-0.143,-0.107,2.122,9.376,2.237,2.021
a,200418,0.000,0.000,36.000,-0.095,-0.098,-0.489,2.134,9.358,2.215,2.021
a,200422,0.000,0.000,36.000,0.073,0.055,-0.306,2.113,9.391,2.248,2.373
a,200426,0.000,0.000,36.000,-0.019,-0.006,0.045,2.134,9.386,2.251,2.417
a,200430,0.000,0.000,36.000,-0.080,-0.052,0.274,2.107,9.391,2.258,2.373
a,200434,0.000,0.000,36.000,-0.171,0.177,0.549,2.125,9.388,2.243,2.021
a,200439,0.000,0.000,36.000,-0.080,0.177,0.549,2.113,9.402,2.229,2.065
a,200442,0.000,0.000,36.000,-0.034,-0.143,-0.871,2.119,9.383,2.223,2.021
a,200447,0.000,0.000,36.000,-0.126,-0.037,0.992,2.116,9.413,2.217,2.065
a,200450,0.000,0.000,36.000,0.180,0.116,-0.428,2.128,9.384,2.237,2.021
a,200454,0.000,0.000,36.000,-0.019,-0.037,-0.001,2.121,9.369,2.241,1.978
a,200458,0.000,0.000,36.000,-0.248,-0.098,0.320,2.132,9.407,2.243,2.065
a,200462,0.000,0.000,36.000,-0.095,0.070,1.465,2.134,9.408,2.247,2.021
a,200466,0.000,0.000,36.000,0.134,0.070,-0.260,2.116,9.355,2.245,2.021
a,200470,0.000,0.000,36.000,-0.095,-0.220,-0.489,2.106,9.354,2.237,1.978
a,200474,0.000,0.000,36.000,0.012,0.101,-0.443,2.107,9.380,2.223,2.065
a,200478,0.000,0.000,36.000,0.073,-0.098,-0.611,2.121,9.379,2.241,2.065
a,200482,0.000,0.000,36.000,-0.126,-0.205,0.564,2.138,9.404,2.233,2.065
a,200486,0.000,0.000,36.000,0.210,0.086,0.183,2.124,9.384,2.230,2.065
a,200490,0.000,0.000,36.000,0.012,0.162,-1.207,2.106,9.383,2.233,2.065
a,200494,0.000,0.000,36.000,-0.141,0.024,-2.184,2.119,9.373,2.241,2.065
a,200498,0.000,0.000,36.000,-0.187,-0.159,0.396,2.116,9.409,2.210,2.065
a,200503,0.000,0.000,36.000,0.027,-0.037,0.060,2.115,9.371,2.228,2.021
a,200506,0.000,0.000,36.000,0.134,-0.159,-1.054,2.146,9.358,2.237,2.065
a,200510,0.000,0.000,36.000,-0.080,-0.113,0.396,2.122,9.355,2.243,2.021
a,200514,0.000,0.000,36.000,-0.294,0.055,-0.718,2.115,9.347,2.237,2.065
a,200518,0.000,0.000,36.000,0.088,-0.082,0.824,2.128,9.379,2.241,2.065
a,200522,0.000,0.000,36.000,-0.003,-0.052,-0.046,2.137,9.373,2.233,2.065
a,200526,0.000,0.000,36.000,0.134,-0.113,-0.718,2.138,9.370,2.215,2.021
a,200530,0.000,0.000,36.000,-0.126,0.024,0.809,2.127,9.385,2.239,2.109
a,200534,0.000,0.000,36.000,0.027,0.177,0.442,2.156,9.413,2.228,2.065
a,200539,0.000,0.000,36.000,0.027,-0.052,-0.169,2.121,9.373,2.241,2.417
a,200543,0.000,0.000,36.000,-0.080,0.055,0.152,2.134,9.384,2.251,2.021
a,200546,0.000,0.000,36.000,-0.126,-0.128,-0.703,2.143,9.407,2.224,2.021
a,200550,0.000,0.000,36.000,0.042,0.024,1.038,2.125,9.390,2.241,2.065
a,200554,0.000,0.000,36.000,-0.019,0.009,0.870,2.122,9.391,2.225,1.978
a,200558,0.000,0.000,36.000,0.088,-0.159,0.091,2.144,9.384,2.222,1.978
a,200563,0.000,0.000,36.000,-0.095,0.009,1.251,2.112,9.384,2.252,2.021
a,200567,0.000,0.000,36.000,-0.034,-0.159,-0.275,2.122,9.397,2.245,2.021
a,200570,0.000,0.000,36.000,0.012,0.070,-1.436,2.116,9.361,2.241,2.021
a,200574,0.000,0.000,36.000,0.088,-0.021,-0.504,2.106,9.377,2.240,2.021
a,200578,0.000,0.000,36.000,0.195,-0.098,0.152,2.144,9.365,2.241,2.021
a,200582,0.000,0.000,36.000,-0.034,0.116,-0.336,2.115,9.386,2.235,2.021
a,200587,0.000,0.000,36.000,0.180,-0.113,-1.100,2.121,9.373,2.233,2.461
a,200591,0.000,0.000,36.000,0.058,0.040,-1.665,2.137,9.386,2.229,2.065
a,200595,0.000,0.000,36.000,-0.065,0.070,0.442,2.132,9.380,2.254,2.021
a,200599,0.000,0.000,36.000,0.119,0.101,-1.115,2.107,9.388,2.248,2.021
a,200603,0.000,0.000,36.000,-0.019,0.040,-0.932,2.121,9.389,2.259,2.065
a,200607,0.000,0.000,36.000,-0.294,-0.006,-0.062,2.112,9.377,2.247,2.021
a,200610,0.000,0.000,36.000,-0.034,-0.113,-0.596,2.128,9.391,2.258,2.021
a,200614,0.000,0.000,36.000,0.012,0.009,-0.504,2.137,9.397,2.239,2.065
a,200618,0.000,0.000,36.000,-0.049,-0.128,-1.573,2.113,9.349,2.237,2.021
a,200622,0.000,0.000,36.000,-0.171,0.070,2.060,2.119,9.388,2.239,1.978
a,200626,0.000,0.000,36.000,-0.065,-0.205,0.717,2.143,9.383,2.233,2.065
a,200630,0.000,0.000,36.000,0.027,-0.128,0.564,2.137,9.383,2.252,1.978
a,200634,0.000,0.000,36.000,0.027,0.116,0.824,2.121,9.363,2.241,2.065
a,200638,0.000,0.000,36.000,-0.034,-0.311,-0.382,2.128,9.354,2.228,2.065
a,200642,0.000,0.000,36.000,0.180,-0.113,-0.398,2.128,9.386,2.245,2.021
a,200646,0.000,0.000,36.000,0.241,0.238,-1.176,2.109,9.383,2.210,2.021
a,200650,0.000,0.000,36.000,0.012,0.177,1.526,2.116,9.408,2.247,2.373
a,200654,0.000,0.000,36.000,-0.339,0.238,1.144,2.091,9.395,2.235,2.065
a,200658,0.000,0.000,36.000,-0.034,-0.113,-0.550,2.125,9.379,2.235,2.021
a,200662,0.000,0.000,36.000,-0.034,0.070,-0.306,2.132,9.367,2.251,2.021
a,200666,0.000,0.000,36.000,0.027,-0.021,-0.550,2.108,9.389,2.234,2.065
a,200671,0.000,0.000,36.000,-0.080,-0.098,-0.184,2.119,9.389,2.233,2.417
a,200674,0.000,0.000,36.000,0.027,-0.098,-0.107,2.109,9.396,2.248,2.021
a,200678,0.000,0.000,36.000,0.119,-0.113,-0.886,2.115,9.390,2.241,2.021
a,200682,0.000,0.000,36.000,-0.019,-0.052,-0.107,2.132,9.352,2.223,2.065
a,200686,0.000,0.000,36.000,0.195,0.131,0.427,2.112,9.392,2.257,2.065
a,200690,0.000,0.000,36.000,0.088,0.116,-0.138,2.134,9.401,2.233,2.065
a,200694,0.000,0.000,36.000,-0.003,-0.037,1.205,2.134,9.366,2.228,2.021
a,200699,0.000,0.000,36.000,-0.171,-0.052,0.213,2.097,9.380,2.204,2.461
a,200702,0.000,0.000,36.000,0.103,-0.006,0.289,2.115,9.370,2.231,2.065
a,200706,0.000,0.000,36.000,0.119,-0.113,-0.443,2.119,9.383,2.235,2.373
a,200710,0.000,0.000,36.000,-0.065,-0.113,-0.107,2.115,9.398,2.260,2.109
a,200715,0.000,0.000,36.000,0.027,-0.052,-0.214,2.134,9.395,2.200,2.373
a,200719,0.000,0.000,36.000,0.119,-0.098,-0.886,2.125,9.379,2.243,1.978
a,200723,0.000,0.000,36.000,-0.141,-0.052,-0.917,2.116,9.363,2.258,2.109
a,200726,0.000,0.000,36.000,-0.355,0.101,-0.291,2.127,9.394,2.260,2.065
a,200730,0.000,0.000,36.000,0.042,-0.006,0.885,2.121,9.391,2.264,2.109
a,200734,0.000,0.000,36.000,-0.141,-0.006,-0.336,2.127,9.377,2.258,1.978
a,200738,0.000,0.000,36.000,0.088,0.086,0.625,2.128,9.378,2.222,2.065
a,200742,0.000,0.000,36.000,-0.263,-0.006,-0.443,2.138,9.373,2.237,2.021
a,200747,0.000,0.000,36.000,0.134,0.223,0.183,2.115,9.394,2.229,2.021
a,200751,0.000,0.000,36.000,-0.019,0.376,-1.436,2.125,9.370,2.241,2.021
a,200754,0.000,0.000,36.000,-0.187,0.162,-0.016,2.131,9.380,2.258,2.417
a,200759,0.000,0.000,36.000,0.195,-0.098,0.305,2.143,9.403,2.235,2.065
a,200762,0.000,0.000,36.000,0.103,0.116,1.129,2.121,9.366,2.231,2.373
a,200766,0.000,0.000,36.000,-0.003,0.070,0.824,2.116,9.394,2.216,2.021
a,200770,0.000,0.000,36.000,0.088,-0.021,-0.336,2.130,9.391,2.217,2.065
a,200774,0.000,0.000,36.000,0.088,-0.159,-0.779,2.121,9.347,2.248,2.065
a,200778,0.000,0.000,36.000,-0.034,0.116,-0.398,2.140,9.408,2.251,2.065
a,200782,0.000,0.000,36.000,-0.126,-0.006,0.198,2.132,9.348,2.217,2.109
a,200786,0.000,0.000,36.000,0.012,0.223,-0.443,2.122,9.369,2.252,2.417
a,200790,0.000,0.000,36.000,0.027,-0.082,0.442,2.132,9.378,2.248,2.329
a,200794,0.000,0.000,36.000,-0.065,-0.052,0.167,2.097,9.383,2.206,2.065
a,200798,0.000,0.000,36.000,0.103,0.101,0.183,2.125,9.370,2.247,2.373
a,200802,0.000,0.000,36.000,0.103,-0.113,-0.123,2.121,9.361,2.252,2.065
a,200806,0.000,0.000,36.000,0.103,0.055,-0.138,2.152,9.373,2.241,2.109
a,200811,0.000,0.000,36.000,0.027,0.147,-0.504,2.121,9.406,2.221,2.021
a,200814,0.000,0.000,36.000,-0.019,-0.220,-0.214,2.113,9.372,2.222,2.373
a,200818,0.000,0.000,36.000,0.073,0.055,-1.451,2.112,9.383,2.241,2.065
a,200822,0.000,0.000,36.000,-0.003,0.024,1.083,2.143,9.374,2.228,2.065
a,200826,0.000,0.000,36.000,0.027,-0.205,-0.230,2.121,9.413,2.247,2.065
a,200830,0.000,0.000,36.000,-0.080,0.116,0.381,2.128,9.386,2.228,2.065
a,200834,0.000,0.000,36.000,0.042,0.055,0.702,2.126,9.396,2.222,1.978
a,200839,0.000,0.000,36.000,-0.065,0.024,1.908,2.138,9.389,2.233,2.461
a,200842,0.000,0.000,36.000,-0.034,-0.098,-0.321,2.131,9.382,2.241,2.021
a,200846,0.000,0.000,36.000,0.103,-0.220,0.091,2.125,9.388,2.235,2.109
a,200850,0.000,0.000,36.000,0.088,-0.082,0.870,2.148,9.403,2.243,2.461
a,200855,0.000,0.000,36.000,0.302,-0.052,-0.184,2.122,9.386,2.231,2.021
a,200859,0.000,0.000,36.000,-0.080,-0.220,-0.871,2.121,9.413,2.229,2.065
a,200863,0.000,0.000,36.000,0.180,-0.037,-0.459,2.132,9.406,2.233,2.417
a,200866,0.000,0.000,36.000,0.088,-0.052,0.305,2.132,9.416,2.239,2.417
a,200870,0.000,0.000,36.000,-0.019,-0.205,0.610,2.127,9.391,2.225,2.065
a,200874,0.000,0.000,36.000,-0.003,0.253,1.633,2.128,9.365,2.231,2.065
a,200878,0.000,0.000,36.000,0.012,-0.006,-0.611,2.132,9.408,2.248,2.021
a,200882,0.000,0.000,36.000,-0.370,0.116,-1.268,2.113,9.400,2.248,2.065
a,200886,0.000,0.000,36.000,0.271,0.055,-0.245,2.127,9.398,2.237,2.417
a,200891,0.000,0.000,36.000,0.027,0.024,0.595,2.140,9.410,2.239,2.109
a,200894,0.000,0.000,36.000,-0.019,-0.143,-0.107,2.127,9.394,2.243,2.417
a,200899,0.000,0.000,36.000,0.073,-0.006,-0.352,2.143,9.366,2.263,2.417
a,200903,0.000,0.000,36.000,0.149,-0.052,0.259,2.127,9.379,2.252,2.021
a,200906,0.000,0.000,36.000,0.088,0.101,-0.520,2.112,9.409,2.235,2.021
a,200910,0.000,0.000,36.000,0.256,0.009,0.244,2.106,9.404,2.243,2.065
a,200914,0.000,0.000,36.000,-0.126,0.177,0.488,2.116,9.390,2.231,2.065
a,200918,0.000,0.000,36.000,0.012,-0.205,-0.398,2.122,9.410,2.229,2.021
a,200922,0.000,0.000,36.000,-0.156,-0.205,1.328,2.131,9.391,2.223,2.065
a,200926,0.000,0.000,36.000,-0.095,-0.159,-0.489,2.146,9.391,2.258,2.065
a,200930,0.000,0.000,36.000,-0.126,-0.052,0.106,2.112,9.380,2.239,2.021
a,200934,0.000,0.000,36.000,0.119,-0.006,-1.176,2.127,9.384,2.217,2.021
a,200938,0.000,0.000,36.000,0.134,0.070,0.122,2.121,9.371,2.260,2.021
a,200942,0.000,0.000,36.000,-0.126,-0.143,0.381,2.116,9.378,2.241,2.417
a,200946,0.000,0.000,36.000,0.103,0.040,0.030,2.124,9.402,2.217,2.461
a,200950,0.000,0.000,36.000,-0.080,0.086,0.595,2.106,9.400,2.252,2.373
a,200954,0.000,0.000,36.000,-0.019,0.009,-0.062,2.116,9.400,2.239,2.461
a,200958,0.000,0.000,36.000,0.134,-0.098,0.045,2.116,9.394,2.247,2.373
a,200962,0.000,0.000,36.000,-0.187,-0.113,-0.169,2.107,9.370,2.225,2.021
a,200966,0.000,0.000,36.000,-0.126,-0.113,0.320,2.121,9.394,2.229,2.417
a,200970,0.000,0.000,36.000,-0.095,-0.006,-0.291,2.112,9.380,2.247,1.978
a,200974,0.000,0.000,36.000,0.088,0.284,0.641,2.148,9.390,2.245,2.021
a,200978,0.000,0.000,36.000,-0.110,-0.220,0.213,2.122,9.401,2.223,2.065
a,200982,0.000,0.000,36.000,0.149,0.070,0.427,2.128,9.372,2.229,2.021
a,200987,0.000,0.000,36.000,0.210,0.101,0.244,2.119,9.402,2.247,2.065
a,200991,0.000,0.000,36.000,0.134,-0.037,0.366,2.109,9.406,2.229,2.373
a,200994,0.000,0.000,36.000,0.210,-0.052,0.259,2.131,9.416,2.229,2.373
a,200998,0.000,0.000,36.000,-0.019,-0.052,-0.107,2.137,9.386,2.203,2.065
a,201002,0.000,0.000,36.000,0.088,0.055,-0.947,2.132,9.386,2.235,2.065
a,201006,0.000,0.000,36.000,-0.110,0.284,0.442,2.100,9.391,2.251,2.065
a,201011,0.000,0.000,36.000,-0.034,-0.098,-0.917,2.113,9.386,2.204,2.065
a,201015,0.000,0.000,36.000,0.042,-0.418,0.778,2.131,9.383,2.233,2.417
a,201018,0.000,0.000,36.000,0.119,0.177,-1.405,2.127,9.371,2.219,2.417
a,201022,0.000,0.000,36.000,0.027,-0.006,-0.825,2.137,9.361,2.216,2.373
a,201026,0.000,0.000,36.000,0.088,-0.006,-0.199,2.128,9.379,2.231,2.109
a,201030,0.000,0.000,36.000,-0.065,0.070,0.763,2.132,9.397,2.229,2.109
a,201034,0.000,0.000,36.000,-0.019,-0.098,0.885,2.137,9.347,2.263,2.021
a,201038,0.000,0.000,36.000,-0.019,-0.021,0.992,2.150,9.374,2.229,2.417
a,201043,0.000,0.000,36.000,-0.080,-0.311,-0.046,2.116,9.372,2.245,2.461
a,201046,0.000,0.000,36.000,0.042,-0.159,0.320,2.109,9.390,2.241,2.065
a,201051,0.000,0.000,36.000,-0.126,0.101,0.259,2.107,9.383,2.241,2.109
a,201054,0.000,0.000,36.000,0.088,0.055,-0.199,2.132,9.419,2.254,2.417
a,201058,0.000,0.000,36.000,0.012,-0.006,-1.268,2.113,9.386,2.243,2.417
a,201062,0.000,0.000,36.000,-0.095,0.055,-0.779,2.106,9.380,2.245,2.065
a,201066,0.000,0.000,36.000,0.195,-0.128,0.976,2.134,9.400,2.252,2.417
a,201070,0.000,0.000,36.000,-0.065,-0.205,0.503,2.140,9.335,2.233,2.417
a,201074,0.000,0.000,36.000,-0.019,0.116,0.870,2.140,9.395,2.204,2.021
a,201078,0.000,0.000,36.000,-0.080,-0.189,0.839,2.113,9.371,2.239,2.461
a,201082,0.000,0.000,36.000,-0.034,-0.418,-1.146,2.152,9.358,2.212,2.021
a,201086,0.000,0.000,36.000,0.195,-0.037,0.198,2.134,9.379,2.225,2.417
a,201090,0.000,0.000,36.000,-0.080,0.269,-0.062,2.121,9.361,2.252,2.065
a,201094,0.000,0.000,36.000,0.210,-0.052,-0.184,2.115,9.364,2.233,2.417
a,201098,0.000,0.000,36.000,-0.003,-0.159,0.213,2.137,9.369,2.248,2.021
a,201103,0.000,0.000,36.000,-0.034,-0.311,-0.810,2.127,9.382,2.225,2.021
a,201106,0.000,0.000,36.000,0.302,-0.128,0.763,2.134,9.382,2.241,2.065
a,201110,0.000,0.000,36.000,-0.019,-0.250,-0.046,2.106,9.367,2.237,2.417
a,201114,0.000,0.000,36.000,0.027,-0.037,0.610,2.128,9.395,2.241,2.065
a,201118,0.000,0.000,36.000,0.012,-0.006,-0.398,2.144,9.379,2.247,2.065
a,201122,0.000,0.000,36.000,0.119,-0.143,-0.611,2.144,9.392,2.223,2.065
a,201126,0.000,0.000,36.000,-0.003,0.009,0.442,2.132,9.376,2.239,2.021
a,201130,0.000,0.000,36.000,-0.141,0.055,-0.504,2.115,9.379,2.247,2.417
a,201134,0.000,0.000,36.000,0.103,0.116,0.427,2.115,9.391,2.219,2.021
a,201139,0.000,0.000,36.000,0.180,-0.098,-0.504,2.140,9.365,2.223,2.109
a,201142,0.000,0.000,36.000,-0.126,-0.052,0.213,2.127,9.364,2.229,2.021
a,201146,0.000,0.000,36.000,0.027,0.055,-0.291,2.137,9.401,2.235,2.065
a,201150,0.000,0.000,36.000,0.012,-0.037,1.328,2.128,9.373,2.243,2.021
a,201154,0.000,0.000,36.000,-0.003,0.040,0.167,2.095,9.370,2.234,2.065
a,201159,0.000,0.000,36.000,-0.171,-0.220,0.274,2.122,9.384,2.231,2.021
a,201163,0.000,0.000,36.000,-0.110,0.177,0.488,2.132,9.376,2.231,2.109
a,201166,0.000,0.000,36.000,0.073,-0.052,-1.054,2.150,9.383,2.225,2.065
a,201170,0.000,0.000,36.000,0.027,-0.052,-0.489,2.122,9.419,2.258,2.065
a,201174,0.000,0.000,36.000,0.088,0.101,0.076,2.125,9.366,2.237,2.065
a,201178,0.000,0.000,36.000,-0.095,0.009,-0.443,2.106,9.379,2.231,2.065
a,201182,0.000,0.000,36.000,-0.019,-0.052,0.167,2.128,9.373,2.223,2.417
a,201186,0.000,0.000,36.000,0.088,-0.098,0.152,2.128,9.374,2.223,2.461
a,201190,0.000,0.000,36.000,0.073,0.101,-0.352,2.116,9.354,2.235,2.417
a,201194,0.000,0.000,36.000,0.195,-0.159,-0.184,2.100,9.373,2.241,2.065
a,201198,0.000,0.000,36.000,0.027,0.101,-0.230,2.150,9.355,2.228,2.417
a,201203,0.000,0.000,36.000,-0.187,0.101,-0.184,2.146,9.388,2.231,2.373
a,201206,0.000,0.000,36.000,-0.080,-0.006,0.259,2.100,9.386,2.228,2.021
a,201210,0.000,0.000,36.000,-0.019,0.009,-0.123,2.122,9.379,2.248,2.417
a,201215,0.000,0.000,36.000,0.409,-0.021,0.809,2.100,9.345,2.223,2.065
a,201218,0.000,0.000,36.000,0.012,-0.052,-0.321,2.121,9.359,2.252,2.373
a,201222,0.000,0.000,36.000,0.073,-0.098,-0.581,2.128,9.377,2.229,2.109
a,201226,0.000,0.000,36.000,-0.080,0.070,0.595,2.121,9.409,2.251,2.065
a,201230,0.000,0.000,36.000,-0.126,-0.052,0.213,2.127,9.386,2.237,2.065
a,201234,0.000,0.000,36.000,-0.065,0.024,1.572,2.137,9.379,2.252,2.065
a,201238,0.000,0.000,36.000,0.073,-0.098,-0.932,2.122,9.410,2.245,2.065
a,201242,0.000,0.000,36.000,0.027,-0.098,0.274,2.106,9.396,2.241,2.021
a,201246,0.000,0.000,36.000,-0.080,-0.205,-0.230,2.134,9.384,2.222,2.065
a,201250,0.000,0.000,36.000,-0.080,-0.266,-0.871,2.131,9.348,2.231,2.065
a,201254,0.000,0.000,36.000,-0.034,-0.143,-0.978,2.137,9.382,2.219,2.021
a,201258,0.000,0.000,36.000,0.149,0.055,0.076,2.131,9.366,2.233,2.021
a,201262,0.000,0.000,36.000,0.073,-0.205,-1.069,2.132,9.389,2.229,2.109
a,201266,0.000,0.000,36.000,0.027,-0.266,-0.001,2.121,9.377,2.231,2.021
a,201270,0.000,0.000,36.000,0.088,0.162,0.183,2.134,9.390,2.223,2.021
a,201275,0.000,0.000,36.000,-0.034,0.009,-0.611,2.125,9.383,2.223,2.065
a,201278,0.000,0.000,36.000,-0.080,-0.220,-0.107,2.113,9.376,2.251,2.065
a,201282,0.000,0.000,36.000,-0.263,-0.098,-1.253,2.148,9.394,2.248,2.021
a,201287,0.000,0.000,36.000,-0.126,0.177,0.442,2.107,9.388,2.228,2.461
a,201291,0.000,0.000,36.000,0.103,0.040,-0.199,2.130,9.384,2.228,2.021
a,201294,0.000,0.000,36.000,0.042,-0.021,-0.046,2.127,9.409,2.228,2.065
a,201298,0.000,0.000,36.000,0.134,0.009,0.183,2.119,9.385,2.247,2.065
a,201302,0.000,0.000,36.000,-0.003,0.086,1.144,2.138,9.371,2.228,2.065
a,201306,0.000,0.000,36.000,0.119,-0.205,-0.947,2.127,9.382,2.257,2.109
a,201311,0.000,0.000,36.000,0.073,0.070,-0.901,2.140,9.385,2.217,1.978
a,201315,0.000,0.000,36.000,-0.034,-0.143,-0.382,2.122,9.376,2.225,2.417
a,201318,0.000,0.000,36.000,-0.034,-0.205,-0.398,2.131,9.382,2.243,2.065
a,201322,0.000,0.000,36.000,-0.003,-0.067,0.106,2.119,9.359,2.246,2.021
a,201326,0.000,0.000,36.000,-0.141,0.116,-1.207,2.138,9.379,2.243,2.021
a,201330,0.000,0.000,36.000,0.103,0.009,0.809,2.116,9.416,2.263,2.021
a,201334,0.000,0.000,36.000,0.027,0.101,0.259,2.134,9.416,2.237,2.373
a,201338,0.000,0.000,36.000,0.088,-0.098,0.381,2.125,9.390,2.235,2.065
a,201343,0.000,0.000,36.000,0.088,-0.205,0.152,2.113,9.385,2.247,2.109
a,201346,0.000,0.000,36.000,-0.110,-0.220,0.564,2.136,9.396,2.227,2.021
a,201351,0.000,0.000,36.000,0.042,-0.205,1.099,2.131,9.395,2.233,2.021
a,201354,0.000,0.000,36.000,0.119,-0.037,-0.825,2.121,9.379,2.215,2.065
a,201358,0.000,0.000,36.000,-0.080,-0.098,-0.001,2.131,9.389,2.225,2.065
a,201362,0.000,0.000,36.000,-0.019,-0.205,-0.046,2.132,9.394,2.219,2.417
a,201366,0.000,0.000,36.000,0.119,-0.052,-0.398,2.119,9.397,2.251,2.417
a,201370,0.000,0.000,36.000,0.119,-0.327,-0.718,2.138,9.348,2.248,2.065
a,201374,0.000,0.000,36.000,-0.110,-0.235,-1.909,2.116,9.369,2.252,2.021
a,201378,0.000,0.000,36.000,0.027,0.009,-0.230,2.132,9.372,2.245,2.021
a,201382,0.000,0.000,36.000,0.073,-0.205,-1.543,2.112,9.394,2.235,2.417
a,201386,0.000,0.000,36.000,0.027,-0.205,0.564,2.138,9.347,2.237,2.417
a,201390,0.000,0.000,36.000,-0.080,-0.037,0.213,2.119,9.379,2.231,2.109
a,201394,0.000,0.000,36.000,-0.034,0.284,-0.336,2.103,9.383,2.219,2.021
a,201398,0.000,0.000,36.000,0.012,0.116,-0.443,2.125,9.392,2.216,2.065
a,201403,0.000,0.000,36.000,0.119,0.009,-0.749,2.134,9.353,2.243,2.021
a,201406,0.000,0.000,36.000,0.210,0.116,0.854,2.134,9.370,2.239,2.065
a,201410,0.000,0.000,36.000,-0.034,-0.205,-0.291,2.106,9.389,2.241,2.065
a,201414,0.000,0.000,36.000,0.073,-0.037,-0.825,2.132,9.371,2.222,2.417
a,201418,0.000,0.000,36.000,-0.034,-0.159,-1.527,2.127,9.390,2.233,2.065
a,201422,0.000,0.000,36.000,-0.019,-0.052,0.396,2.131,9.390,2.251,2.373
a,201426,0.000,0.000,36.000,0.134,0.253,0.961,2.131,9.357,2.239,2.021
a,201430,0.000,0.000,36.000,-0.019,-0.128,0.610,2.134,9.390,2.239,2.109
a,201434,0.000,0.000,36.000,0.195,-0.082,0.595,2.122,9.392,2.248,2.417
a,201439,0.000,0.000,36.000,-0.080,0.238,-0.062,2.140,9.403,2.235,2.373
a,201442,0.000,0.000,36.000,-0.003,-0.021,-0.001,2.136,9.363,2.240,2.065
a,201446,0.000,0.000,36.000,0.134,-0.006,0.289,2.116,9.386,2.241,2.065
a,201450,0.000,0.000,36.000,-0.294,0.086,-0.718,2.118,9.389,2.240,2.373
a,201454,0.000,0.000,36.000,0.119,0.162,-0.352,2.132,9.388,2.225,2.417
a,201459,0.000,0.000,36.000,0.073,-0.006,-0.306,2.113,9.394,2.252,2.065
a,201463,0.000,0.000,36.000,0.027,0.086,0.595,2.094,9.386,2.254,2.021
a,201466,0.000,0.000,36.000,0.088,-0.037,0.595,2.125,9.373,2.222,2.065
a,201470,0.000,0.000,36.000,-0.110,0.055,-0.230,2.132,9.383,2.252,2.021
a,201474,0.000,0.000,36.000,0.088,-0.021,0.549,2.121,9.396,2.245,2.021
a,201478,0.000,0.000,36.000,-0.019,0.101,-0.932,2.128,9.397,2.231,2.373
a,201482,0.000,0.000,36.000,-0.095,-0.113,-0.764,2.113,9.383,2.241,2.109
a,201487,0.000,0.000,36.000,0.027,0.284,0.091,2.131,9.403,2.222,2.109
a,201490,0.000,0.000,36.000,-0.034,-0.006,-0.336,2.148,9.383,2.229,2.065
a,201495,0.000,0.000,36.000,-0.095,-0.037,-0.489,2.127,9.379,2.254,2.417
a,201498,0.000,0.000,36.000,0.027,0.009,0.549,2.127,9.395,2.241,2.373
a,201502,0.000,0.000,36.000,0.119,-0.006,-0.581,2.121,9.391,2.237,2.065
a,201506,0.000,0.000,36.000,0.088,-0.098,0.183,2.140,9.342,2.235,2.021
a,201510,0.000,0.000,36.000,-0.034,-0.159,-0.978,2.132,9.388,2.258,2.065
a,201514,0.000,0.000,36.000,0.149,-0.113,0.488,2.119,9.384,2.212,2.065
a,201518,0.000,0.000,36.000,0.027,0.223,-0.611,2.121,9.361,2.225,2.109
a,201522,0.000,0.000,36.000,-0.080,0.116,0.702,2.131,9.363,2.260,2.109
a,201526,0.000,0.000,36.000,-0.171,0.101,0.045,2.119,9.409,2.258,2.109
a,201530,0.000,0.000,36.000,-0.248,-0.311,0.213,2.115,9.390,2.239,2.065
a,201534,0.000,0.000,36.000,0.027,0.009,0.763,2.115,9.412,2.239,2.065
a,201538,0.000,0.000,36.000,-0.034,-0.006,-0.291,2.116,9.419,2.228,2.065
a,201542,0.000,0.000,36.000,-0.110,0.131,1.129,2.131,9.373,2.241,2.065
a,201546,0.000,0.000,36.000,-0.095,0.177,1.526,2.144,9.366,2.223,2.021
a,201551,0.000,0.000,36.000,0.119,0.009,-0.840,2.131,9.394,2.225,2.505
a,201554,0.000,0.000,36.000,-0.080,-0.143,0.274,2.128,9.397,2.235,2.065
a,201558,0.000,0.000,36.000,-0.003,-0.006,-0.016,2.121,9.384,2.239,2.021
a,201562,0.000,0.000,36.000,-0.187,0.131,0.854,2.121,9.351,2.229,1.978
a,201566,0.000,0.000,36.000,-0.019,-0.052,0.213,2.146,9.361,2.243,2.373
a,201570,0.000,0.000,36.000,-0.202,0.009,-0.688,2.148,9.388,2.243,2.065
a,201574,0.000,0.000,36.000,-0.126,-0.143,0.778,2.116,9.388,2.254,2.373
a,201578,0.000,0.000,36.000,-0.248,0.070,0.305,2.106,9.407,2.239,2.065
a,201582,0.000,0.000,36.000,-0.019,0.253,0.931,2.137,9.390,2.235,2.021
a,201587,0.000,0.000,36.000,-0.019,-0.205,0.503,2.150,9.384,2.243,2.417
a,201590,0.000,0.000,36.000,-0.080,0.024,0.549,2.100,9.407,2.231,2.065
a,201594,0.000,0.000,36.000,-0.019,-0.021,0.717,2.122,9.404,2.243,2.065
a,201598,0.000,0.000,36.000,0.088,-0.128,-0.398,2.121,9.403,2.246,1.978
a,201603,0.000,0.000,36.000,-0.080,0.086,-0.398,2.110,9.398,2.228,2.109
a,201606,0.000,0.000,36.000,0.088,-0.250,0.366,2.150,9.385,2.229,2.065
a,201611,0.000,0.000,36.000,-0.187,-0.143,-0.214,2.131,9.361,2.206,2.417
a,201615,0.000,0.000,36.000,0.012,0.009,-0.565,2.121,9.382,2.225,2.065
a,201618,0.000,0.000,36.000,-0.080,-0.113,-0.428,2.122,9.388,2.260,2.417
a,201622,0.000,0.000,36.000,-0.095,-0.006,-0.291,2.146,9.398,2.231,2.021
a,201626,0.000,0.000,36.000,-0.019,0.024,0.442,2.122,9.379,2.252,2.021
a,201630,0.000,0.000,36.000,-0.080,-0.205,-0.214,2.138,9.367,2.239,2.109
a,201634,0.000,0.000,36.000,-0.019,-0.113,0.213,2.125,9.407,2.252,2.065
a,201639,0.000,0.000,36.000,0.378,-0.082,1.633,2.140,9.432,2.257,2.373
a,201643,0.000,0.000,36.000,0.088,0.116,0.030,2.134,9.390,2.231,2.417
a,201646,0.000,0.000,36.000,0.103,-0.021,1.511,2.132,9.389,2.203,2.461
a,201651,0.000,0.000,36.000,0.012,0.009,-0.565,2.122,9.349,2.257,2.065
a,201654,0.000,0.000,36.000,-0.080,-0.052,-0.596,2.131,9.394,2.206,2.065
a,201658,0.000,0.000,36.000,0.195,-0.052,0.091,2.143,9.369,2.228,2.021
a,201662,0.000,0.000,36.000,-0.095,-0.128,-0.230,2.109,9.383,2.263,2.417
a,201666,0.000,0.000,36.000,0.119,-0.266,-0.825,2.134,9.383,2.223,2.065
a,201670,0.000,0.000,36.000,-0.034,0.162,-0.443,2.091,9.373,2.237,2.373
a,201674,0.000,0.000,36.000,-0.019,-0.372,0.259,2.150,9.395,2.266,2.417
a,201678,0.000,0.000,36.000,-0.095,0.238,-0.672,2.115,9.385,2.237,2.021
a,201682,0.000,0.000,36.000,0.027,-0.098,-0.001,2.115,9.414,2.245,2.065
a,201686,0.000,0.000,36.000,0.088,0.009,0.167,2.132,9.420,2.235,2.417
a,201690,0.000,0.000,36.000,-0.187,-0.250,0.503,2.106,9.341,2.231,2.417
a,201694,0.000,0.000,36.000,-0.019,0.009,0.198,2.127,9.360,2.260,2.417
a,201698,0.000,0.000,36.000,-0.003,0.131,1.786,2.112,9.367,2.245,2.065
a,201702,0.000,0.000,36.000,0.073,0.070,-0.795,2.119,9.382,2.241,2.065
a,201707,0.000,0.000,36.000,0.073,-0.327,-0.504,2.137,9.386,2.237,2.417
a,201710,0.000,0.000,36.000,-0.019,-0.098,0.885,2.119,9.380,2.252,2.021
a,201714,0.000,0.000,36.000,0.012,0.055,-0.932,2.138,9.404,2.251,2.065
a,201718,0.000,0.000,36.000,0.042,-0.037,0.671,2.103,9.394,2.248,2.417
a,201722,0.000,0.000,36.000,-0.232,-0.067,-0.046,2.139,9.364,2.251,2.109
a,201726,0.000,0.000,36.000,0.012,0.177,1.083,2.132,9.394,2.219,2.021
a,201730,0.000,0.000,36.000,0.058,0.009,1.572,2.115,9.373,2.247,2.065
a,201734,0.000,0.000,36.000,-0.126,0.162,-0.062,2.122,9.412,2.252,2.329
a,201739,0.000,0.000,36.000,-0.019,-0.220,0.320,2.134,9.416,2.248,2.065
a,201742,0.000,0.000,36.000,-0.187,-0.159,-0.169,2.127,9.363,2.258,2.021
a,201746,0.000,0.000,36.000,0.073,-0.205,-0.611,2.127,9.369,2.245,2.109
a,201750,0.000,0.000,36.000,0.210,0.253,1.022,2.132,9.426,2.229,2.109
a,201754,0.000,0.000,36.000,-0.080,-0.082,1.038,2.138,9.424,2.222,2.417
a,201759,0.000,0.000,36.000,-0.171,-0.082,1.648,2.116,9.360,2.243,2.417
a,201763,0.000,0.000,36.000,0.088,0.101,-0.840,2.121,9.402,2.245,2.417
a,201766,0.000,0.000,36.000,0.012,0.055,-0.398,2.148,9.379,2.239,2.109
a,201770,0.000,0.000,36.000,-0.095,0.177,-0.565,2.131,9.386,2.225,2.461
a,201774,0.000,0.000,36.000,-0.141,-0.006,-0.336,2.132,9.401,2.245,2.373
a,201778,0.000,0.000,36.000,-0.202,-0.098,-0.321,2.131,9.372,2.228,2.065
a,201782,0.000,0.000,36.000,0.134,-0.082,1.022,2.125,9.370,2.251,2.021
a,201786,0.000,0.000,36.000,-0.095,0.055,-0.336,2.112,9.394,2.233,2.065
a,201791,0.000,0.000,36.000,0.027,0.070,0.091,2.127,9.367,2.237,2.065
a,201794,0.000,0.000,36.000,-0.095,0.055,-0.718,2.138,9.421,2.252,2.109
a,201799,0.000,0.000,36.000,-0.171,-0.067,0.228,2.121,9.390,2.266,2.065
a,201802,0.000,0.000,36.000,0.088,0.070,-0.245,2.162,9.400,2.243,2.461
a,201806,0.000,0.000,36.000,0.073,-0.143,-0.611,2.140,9.367,2.257,2.065
a,201810,0.000,0.000,36.000,0.195,0.086,0.854,2.134,9.400,2.233,2.109
a,201814,0.000,0.000,36.000,0.088,-0.143,0.045,2.125,9.394,2.222,2.065
a,201818,0.000,0.000,36.000,0.134,0.238,-0.260,2.113,9.391,2.245,2.021
a,201822,0.000,0.000,36.000,0.012,-0.159,-1.146,2.131,9.364,2.222,2.065
a,201826,0.000,0.000,36.000,-0.171,0.009,1.083,2.144,9.384,2.241,2.065
a,201830,0.000,0.000,36.000,0.027,0.009,-0.245,2.112,9.373,2.243,2.065
a,201834,0.000,0.000,36.000,-0.065,-0.052,0.885,2.126,9.378,2.243,2.417
a,201838,0.000,0.000,36.000,-0.202,0.238,-0.565,2.106,9.374,2.225,2.065
a,201842,0.000,0.000,36.000,-0.003,-0.220,-0.214,2.128,9.398,2.237,2.109
a,201846,0.000,0.000,36.000,-0.080,0.299,0.656,2.112,9.361,2.243,2.065
a,201850,0.000,0.000,36.000,0.088,-0.082,0.595,2.144,9.365,2.229,2.461
a,201855,0.000,0.000,36.000,-0.095,0.116,-0.565,2.132,9.396,2.239,2.065
a,201858,0.000,0.000,36.000,-0.034,0.070,-1.314,2.132,9.400,2.239,2.065
a,201862,0.000,0.000,36.000,-0.095,0.269,-1.207,2.113,9.409,2.215,2.021
a,201866,0.000,0.000,36.000,-0.126,0.009,-0.138,2.134,9.378,2.233,2.065
a,201870,0.000,0.000,36.000,0.119,-0.143,-1.222,2.101,9.389,2.233,2.373
a,201874,0.000,0.000,36.000,0.027,-0.189,0.992,2.131,9.358,2.239,2.065
a,201878,0.000,0.000,36.000,0.012,0.086,-0.031,2.128,9.390,2.231,2.109
a,201882,0.000,0.000,36.000,0.088,-0.052,-0.230,2.128,9.366,2.233,2.109
a,201887,0.000,0.000,36.000,-0.019,0.009,-0.184,2.106,9.385,2.235,2.373
a,201891,0.000,0.000,36.000,0.195,-0.098,-0.184,2.122,9.389,2.241,2.417
a,201894,0.000,0.000,36.000,-0.034,0.269,-0.611,2.113,9.379,2.219,2.461
a,201898,0.000,0.000,36.000,-0.080,0.177,-0.199,2.125,9.371,2.229,2.417
a,201902,0.000,0.000,36.000,0.042,0.070,0.763,2.137,9.377,2.248,2.065
a,201906,0.000,0.000,36.000,-0.080,-0.159,-0.169,2.127,9.402,2.225,2.065
a,201910,0.000,0.000,36.000,0.012,-0.250,-0.565,2.115,9.395,2.231,2.065
a,201915,0.000,0.000,36.000,-0.126,0.299,0.473,2.134,9.367,2.217,2.461
a,201919,0.000,0.000,36.000,0.103,-0.403,-0.123,2.143,9.416,2.240,2.417
a,201922,0.000,0.000,36.000,-0.187,0.101,0.381,2.128,9.386,2.210,2.417
a,201926,0.000,0.000,36.000,0.027,-0.037,-0.046,2.134,9.376,2.247,2.417
a,201930,0.000,0.000,36.000,0.180,-0.098,-0.398,2.144,9.371,2.216,2.109
a,201934,0.000,0.000,36.000,-0.248,0.192,0.747,2.122,9.373,2.231,2.065
a,201938,0.000,0.000,36.000,0.027,-0.037,0.167,2.119,9.369,2.231,2.461
a,201943,0.000,0.000,36.000,0.027,-0.113,-0.169,2.132,9.401,2.225,2.373
a,201946,0.000,0.000,36.000,-0.019,-0.006,0.198,2.144,9.379,2.229,2.065
a,201951,0.000,0.000,36.000,0.027,0.009,-0.230,2.128,9.374,2.257,2.065
a,201954,0.000,0.000,36.000,0.027,-0.113,0.320,2.128,9.401,2.235,1.978
a,201958,0.000,0.000,36.000,-0.080,-0.098,-0.062,2.131,9.380,2.243,2.109
a,201962,0.000,0.000,36.000,-0.034,-0.052,-0.428,2.134,9.379,2.258,2.417
a,201966,0.000,0.000,36.000,0.012,0.009,1.190,2.107,9.377,2.245,2.109
a,201970,0.000,0.000,36.000,0.180,0.101,-0.688,2.109,9.372,2.225,2.373
a,201974,0.000,0.000,36.000,0.027,-0.098,-0.001,2.116,9.396,2.241,2.417
a,201978,0.000,0.000,36.000,0.134,0.086,0.427,2.119,9.397,2.219,2.373
a,201982,0.000,0.000,36.000,-0.034,-0.052,-0.764,2.115,9.395,2.231,2.021
a,201986,0.000,0.000,36.000,-0.126,-0.250,-0.214,2.121,9.392,2.237,2.109
a,201990,0.000,0.000,36.000,-0.019,-0.098,0.213,2.128,9.361,2.239,2.065
a,201994,0.000,0.000,36.000,-0.126,0.284,-0.031,2.091,9.378,2.228,2.109
a,201998,0.000,0.000,36.000,0.088,-0.082,0.641,2.128,9.414,2.233,2.065
a,202003,0.000,0.000,36.000,0.027,-0.220,-0.871,2.131,9.372,2.237,2.373
a,202006,0.000,0.000,36.000,0.073,0.101,-0.413,2.119,9.361,2.237,2.021
a,202010,0.000,0.000,36.000,-0.019,-0.098,-0.016,2.116,9.370,2.235,2.109
a,202014,0.000,0.000,36.000,0.073,0.070,-0.627,2.150,9.418,2.235,2.021
a,202018,0.000,0.000,36.000,-0.202,-0.052,-0.596,2.125,9.372,2.239,2.417
a,202022,0.000,0.000,36.000,-0.202,0.177,-0.718,2.128,9.378,2.257,2.065
a,202026,0.000,0.000,36.000,-0.019,0.116,0.152,2.116,9.361,2.260,2.109
a,202030,0.000,0.000,36.000,0.027,-0.113,0.274,2.125,9.373,2.245,2.417
a,202035,0.000,0.000,36.000,-0.034,-0.006,-0.565,2.116,9.359,2.251,2.417
a,202039,0.000,0.000,36.000,-0.095,0.101,-0.398,2.100,9.404,2.233,2.065
a,202042,0.000,0.000,36.000,-0.019,-0.143,0.060,2.115,9.418,2.241,2.021
a,202046,0.000,0.000,36.000,-0.126,0.086,0.976,2.128,9.389,2.237,2.021
a,202050,0.000,0.000,36.000,0.210,0.024,1.068,2.125,9.379,2.247,2.065
a,202054,0.000,0.000,36.000,-0.080,-0.006,-0.184,2.148,9.373,2.228,2.065
a,202059,0.000,0.000,36.000,0.195,0.009,0.686,2.115,9.398,2.225,2.021
a,202063,0.000,0.000,36.000,-0.080,0.101,-0.062,2.128,9.412,2.215,2.417
a,202066,0.000,0.000,36.000,-0.080,0.177,-0.184,2.113,9.385,2.239,2.065
a,202070,0.000,0.000,36.000,-0.126,0.024,0.686,2.103,9.382,2.222,2.021
a,202074,0.000,0.000,36.000,0.134,-0.067,1.725,2.122,9.398,2.252,2.417
a,202078,0.000,0.000,36.000,-0.019,0.070,-0.184,2.134,9.394,2.251,2.021
a,202082,0.000,0.000,36.000,-0.080,-0.037,0.198,2.134,9.389,2.247,2.021
a,202087,0.000,0.000,36.000,-0.126,-0.052,-0.810,2.116,9.391,2.237,2.021
a,202091,0.000,0.000,36.000,0.012,-0.205,-0.398,2.150,9.377,2.235,2.065
a,202094,0.000,0.000,36.000,-0.126,-0.128,0.457,2.119,9.383,2.235,2.065
a,202099,0.000,0.000,36.000,-0.019,0.024,0.549,2.137,9.361,2.239,2.065
a,202102,0.000,0.000,36.000,0.119,0.070,-0.321,2.131,9.382,2.237,2.065
a,202106,0.000,0.000,36.000,-0.034,-0.311,-1.298,2.119,9.360,2.233,2.461
a,202110,0.000,0.000,36.000,-0.187,0.009,0.870,2.103,9.408,2.243,2.021
a,202114,0.000,0.000,36.000,0.180,-0.143,-0.901,2.127,9.385,2.243,2.065
a,202118,0.000,0.000,36.000,0.088,-0.220,0.259,2.122,9.383,2.223,2.417
a,202122,0.000,0.000,36.000,0.027,-0.220,0.060,2.144,9.383,2.223,2.373
a,202126,0.000,0.000,36.000,-0.049,-0.052,-1.695,2.131,9.371,2.228,2.065
a,202130,0.000,0.000,36.000,0.134,-0.021,0.870,2.127,9.379,2.229,2.065
a,202134,0.000,0.000,36.000,-0.019,0.238,0.152,2.148,9.378,2.223,2.373
a,202138,0.000,0.000,36.000,0.119,0.009,-1.115,2.122,9.367,2.212,2.021
a,202142,0.000,0.000,36.000,0.088,0.009,0.427,2.137,9.372,2.233,2.021
a,202146,0.000,0.000,36.000,0.012,-0.311,-0.657,2.122,9.385,2.263,2.373
a,202151,0.000,0.000,36.000,0.241,-0.052,-0.932,2.113,9.369,2.245,2.065
a,202154,0.000,0.000,36.000,-0.110,-0.113,-0.214,2.134,9.397,2.241,2.109
a,202158,0.000,0.000,36.000,-0.080,-0.250,0.106,2.116,9.386,2.248,2.021
a,202162,0.000,0.000,36.000,0.027,0.009,0.656,2.116,9.379,2.219,2.021
a,202166,0.000,0.000,36.000,-0.003,-0.159,0.106,2.122,9.366,2.251,2.065
a,202170,0.000,0.000,36.000,-0.126,0.009,0.137,2.138,9.351,2.239,2.417
a,202174,0.000,0.000,36.000,-0.187,-0.021,0.671,2.127,9.354,2.219,2.065
a,202178,0.000,0.000,36.000,0.073,0.116,-0.535,2.109,9.370,2.252,2.417
a,202182,0.000,0.000,36.000,-0.095,0.009,-0.352,2.140,9.392,2.248,2.417
a,202186,0.000,0.000,36.000,0.027,-0.205,0.946,2.122,9.383,2.241,2.065
a,202191,0.000,0.000,36.000,0.027,0.024,0.580,2.146,9.385,2.260,2.417
a,202194,0.000,0.000,36.000,0.073,-0.037,-0.932,2.137,9.396,2.235,2.065
a,202198,0.000,0.000,36.000,0.012,0.101,-0.611,2.128,9.394,2.257,2.461
a,202202,0.000,0.000,36.000,0.103,-0.143,1.190,2.119,9.384,2.212,2.417
a,202207,0.000,0.000,36.000,-0.095,0.055,-1.268,2.116,9.390,2.257,2.417
a,202211,0.000,0.000,36.000,-0.034,-0.143,-0.596,2.128,9.394,2.254,2.065
a,202215,0.000,0.000,36.000,-0.309,0.009,-0.520,2.132,9.388,2.247,2.065
a,202219,0.000,0.000,36.000,0.027,0.070,0.381,2.143,9.376,2.223,2.021
a,202222,0.000,0.000,36.000,-0.126,-0.037,0.167,2.113,9.374,2.239,2.417
a,202226,0.000,0.000,36.000,-0.019,-0.205,0.839,2.148,9.401,2.257,2.065
a,202230,0.000,0.000,36.000,0.027,-0.143,0.396,2.158,9.401,2.231,2.021
a,202234,0.000,0.000,36.000,0.027,-0.098,0.274,2.112,9.378,2.248,2.065
a,202239,0.000,0.000,36.000,-0.187,0.009,0.152,2.116,9.343,2.233,2.417
a,202242,0.000,0.000,36.000,-0.019,0.192,0.763,2.127,9.382,2.219,2.021
a,202247,0.000,0.000,36.000,-0.034,-0.037,-0.764,2.127,9.392,2.233,2.065
a,202250,0.000,0.000,36.000,-0.003,-0.067,-0.107,2.142,9.384,2.251,2.065
a,202254,0.000,0.000,36.000,-0.034,-0.159,-0.810,2.128,9.390,2.223,2.417
a,202258,0.000,0.000,36.000,-0.141,0.040,0.854,2.143,9.401,2.242,2.021
a,202262,0.000,0.000,36.000,0.180,-0.037,-0.459,2.103,9.389,2.243,2.065
a,202266,0.000,0.000,36.000,-0.187,-0.052,-1.191,2.148,9.369,2.241,2.065
a,202270,0.000,0.000,36.000,0.042,0.070,1.038,2.127,9.377,2.222,2.417
a,202274,0.000,0.000,36.000,0.119,-0.037,-1.283,2.127,9.377,2.233,2.109
a,202278,0.000,0.000,36.000,-0.034,0.070,-0.291,2.115,9.404,2.233,2.109
a,202282,0.000,0.000,36.000,-0.019,0.131,0.915,2.100,9.408,2.252,2.065
a,202286,0.000,0.000,36.000,-0.126,-0.098,0.671,2.121,9.369,2.223,2.417
a,202290,0.000,0.000,36.000,-0.202,0.009,-0.443,2.116,9.372,2.258,2.417
a,202294,0.000,0.000,36.000,-0.034,-0.113,-0.428,2.148,9.394,2.239,2.461
a,202298,0.000,0.000,36.000,0.012,-0.098,-1.085,2.121,9.379,2.245,2.109
a,202302,0.000,0.000,36.000,-0.065,0.086,1.450,2.115,9.382,2.231,2.021
a,202306,0.000,0.000,36.000,-0.003,0.086,1.068,2.125,9.384,2.200,2.065
a,202310,0.000,0.000,36.000,-0.080,-0.128,-0.657,2.102,9.402,2.235,2.109
a,202314,0.000,0.000,36.000,0.073,-0.143,-0.672,2.128,9.412,2.237,2.065
a,202318,0.000,0.000,36.000,0.119,-0.113,-0.993,2.127,9.386,2.216,2.461
a,202322,0.000,0.000,36.000,-0.019,0.070,0.305,2.122,9.383,2.219,2.417
a,202326,0.000,0.000,36.000,0.088,-0.021,0.702,2.148,9.389,2.235,2.065
a,202330,0.000,0.000,36.000,0.027,0.116,-0.123,2.121,9.403,2.254,2.417
a,202335,0.000,0.000,36.000,0.042,0.024,1.038,2.119,9.358,2.245,2.065
a,202339,0.000,0.000,36.000,0.119,-0.266,-0.443,2.132,9.380,2.239,2.461
a,202342,0.000,0.000,36.000,-0.049,-0.082,-0.718,2.122,9.383,2.260,2.373
a,202346,0.000,0.000,36.000,-0.248,-0.205,-0.046,2.127,9.378,2.235,2.065
a,202350,0.000,0.000,36.000,-0.248,-0.037,0.060,2.103,9.403,2.231,2.373
a,202355,0.000,0.000,36.000,-0.095,0.238,-0.611,2.121,9.376,2.252,2.461
a,202359,0.000,0.000,36.000,-0.034,-0.098,-1.085,2.119,9.389,2.203,2.065
a,202363,0.000,0.000,36.000,-0.126,-0.388,0.167,2.125,9.388,2.237,2.065
a,202367,0.000,0.000,36.000,-0.019,0.192,0.763,2.112,9.403,2.248,2.417
a,202370,0.000,0.000,36.000,-0.126,0.101,0.259,2.115,9.386,2.247,2.065
a,202374,0.000,0.000,36.000,-0.080,-0.098,0.946,2.127,9.377,2.237,2.417
a,202378,0.000,0.000,36.000,0.027,-0.189,0.457,2.131,9.378,2.235,2.021
a,202382,0.000,0.000,36.000,0.012,-0.205,-0.398,2.119,9.400,2.247,2.417
a,202386,0.000,0.000,36.000,-0.080,-0.082,0.457,2.152,9.378,2.241,2.417
a,202391,0.000,0.000,36.000,-0.095,-0.159,-0.321,2.134,9.380,2.258,2.021
a,202394,0.000,0.000,36.000,-0.065,0.192,1.083,2.137,9.367,2.241,2.065
a,202398,0.000,0.000,36.000,0.088,0.177,0.289,2.143,9.401,2.243,2.065
a,202403,0.000,0.000,36.000,-0.080,0.131,0.976,2.127,9.410,2.233,2.417
a,202406,0.000,0.000,36.000,-0.202,-0.006,-0.398,2.128,9.402,2.243,2.065
a,202410,0.000,0.000,36.000,-0.034,0.070,-0.352,2.113,9.418,2.231,2.109
a,202414,0.000,0.000,36.000,0.073,-0.143,-0.840,2.122,9.373,2.241,2.065
a,202418,0.000,0.000,36.000,0.027,0.009,0.656,2.121,9.408,2.219,2.065
a,202422,0.000,0.000,36.000,0.012,-0.113,-0.275,2.132,9.373,2.254,2.021
a,202426,0.000,0.000,36.000,0.012,-0.418,-0.565,2.122,9.339,2.216,2.065
a,202430,0.000,0.000,36.000,-0.141,0.055,-1.100,2.131,9.398,2.245,2.065
a,202434,0.000,0.000,36.000,-0.019,-0.205,-0.062,2.121,9.377,2.228,2.065
a,202438,0.000,0.000,36.000,-0.126,-0.128,0.839,2.115,9.400,2.252,2.109
a,202442,0.000,0.000,36.000,0.027,-0.021,1.038,2.122,9.396,2.210,2.109
a,202447,0.000,0.000,36.000,-0.065,0.086,1.175,2.137,9.380,2.237,2.065
a,202450,0.000,0.000,36.000,-0.034,-0.205,-0.764,2.107,9.371,2.216,2.065
a,202454,0.000,0.000,36.000,0.073,-0.067,0.488,2.122,9.369,2.234,2.021
a,202458,0.000,0.000,36.000,0.073,-0.205,-0.688,2.121,9.400,2.251,2.065
a,202462,0.000,0.000,36.000,-0.080,0.116,0.244,2.119,9.382,2.245,2.065
a,202466,0.000,0.000,36.000,0.088,0.101,0.137,2.119,9.384,2.239,2.021
a,202470,0.000,0.000,36.000,0.195,-0.037,0.824,2.131,9.373,2.235,2.021
a,202474,0.000,0.000,36.000,-0.126,-0.098,-0.016,2.127,9.370,2.241,2.021
a,202478,0.000,0.000,36.000,0.027,-0.006,0.381,2.137,9.394,2.239,2.021
a,202482,0.000,0.000,36.000,0.394,-0.205,-1.008,2.109,9.406,2.231,2.065
a,202487,0.000,0.000,36.000,0.119,-0.098,-0.795,2.125,9.385,2.245,2.417
a,202491,0.000,0.000,36.000,-0.248,0.009,0.091,2.116,9.378,2.235,2.065
a,202494,0.000,0.000,36.000,-0.034,-0.143,-0.764,2.138,9.394,2.222,2.021
a,202498,0.000,0.000,36.000,-0.232,0.162,-0.230,2.138,9.407,2.254,2.373
a,202502,0.000,0.000,36.000,-0.080,0.192,0.961,2.143,9.378,2.228,2.065
a,202506,0.000,0.000,36.000,0.302,0.070,0.228,2.132,9.349,2.247,2.065
a,202511,0.000,0.000,36.000,-0.003,-0.006,-0.062,2.137,9.390,2.231,2.065
a,202515,0.000,0.000,36.000,0.256,-0.128,0.442,2.125,9.383,2.228,2.065
a,202518,0.000,0.000,36.000,-0.019,-0.143,-0.046,2.119,9.392,2.241,2.417
a,202522,0.000,0.000,36.000,0.134,0.116,0.244,2.127,9.394,2.252,2.417
a,202526,0.000,0.000,36.000,-0.263,0.070,-1.482,2.127,9.367,2.245,2.065
a,202530,0.000,0.000,36.000,-0.095,-0.113,-0.657,2.101,9.394,2.237,2.065
a,202534,0.000,0.000,36.000,-0.065,-0.128,1.160,2.107,9.390,2.270,2.109
a,202539,0.000,0.000,36.000,0.042,0.009,0.442,2.125,9.370,2.228,2.065
a,202542,0.000,0.000,36.000,0.027,0.131,0.549,2.119,9.371,2.241,2.065
a,202547,0.000,0.000,36.000,0.030,-0.085,0.372,2.119,9.401,2.219,2.417
a,202550,0.000,0.000,36.000,-0.016,-0.207,0.815,2.121,9.408,2.263,2.417
a,202554,0.000,0.000,36.000,-0.031,-0.024,-0.345,2.115,9.383,2.248,2.417
a,202558,0.000,0.000,36.000,-0.077,-0.008,0.235,2.150,9.410,2.245,2.065
a,202562,0.000,0.000,36.000,-0.260,0.038,-0.803,2.128,9.403,2.228,2.021
a,202566,0.000,0.000,36.000,0.076,-0.008,-0.361,2.134,9.389,2.241,1.978
a,202570,0.000,0.000,36.000,0.122,-0.176,-0.819,2.121,9.388,2.239,2.065
a,202575,0.000,0.000,36.000,-0.031,0.129,-0.361,2.109,9.408,2.217,2.065
a,202579,0.000,0.000,36.000,0.152,0.083,-0.223,2.128,9.388,2.243,2.417
a,202583,0.000,0.000,36.000,-0.016,0.144,0.006,2.116,9.392,2.241,2.065
a,202586,0.000,0.000,36.000,-0.077,-0.130,-0.071,2.134,9.373,2.235,2.417
a,202590,0.000,0.000,36.000,0.091,-0.024,-0.315,2.119,9.407,2.233,2.065
a,202594,0.000,0.000,36.000,-0.061,-0.237,0.754,2.110,9.389,2.237,2.021
a,202599,0.000,0.000,36.000,-0.290,-0.237,0.189,2.122,9.369,2.216,2.109
a,202602,0.000,0.000,36.000,-0.077,0.083,0.357,2.119,9.390,2.252,2.461
a,202606,0.000,0.000,36.000,-0.031,0.175,0.403,2.127,9.376,2.239,2.065
a,202610,0.000,0.000,36.000,0.137,-0.008,-0.086,2.116,9.412,2.239,2.065
a,202614,0.000,0.000,36.000,-0.290,0.022,-0.086,2.138,9.394,2.239,2.109
a,202618,0.000,0.000,36.000,-0.092,-0.069,-0.681,2.128,9.385,2.225,2.065
a,202622,0.000,0.000,36.000,-0.092,-0.176,-0.361,2.127,9.406,2.233,2.417
a,202626,0.000,0.000,36.000,-0.229,0.160,1.655,2.125,9.414,2.239,2.461
a,202630,0.000,0.000,36.000,-0.000,0.144,0.800,2.119,9.391,2.258,2.065
a,202635,0.000,0.000,36.000,-0.016,-0.237,0.250,2.137,9.401,2.219,2.461
a,202639,0.000,0.000,36.000,-0.199,-0.085,-0.620,2.134,9.380,2.241,2.065
a,202642,0.000,0.000,36.000,-0.016,-0.054,0.433,2.112,9.376,2.217,2.065
a,202646,0.000,0.000,36.000,-0.168,-0.069,1.731,2.116,9.395,2.245,2.065
a,202650,0.000,0.000,36.000,0.106,0.114,1.029,2.128,9.365,2.237,2.021
a,202654,0.000,0.000,36.000,-0.092,-0.008,-0.513,2.140,9.378,2.235,2.461
a,202659,0.000,0.000,36.000,-0.016,-0.054,0.906,2.140,9.380,2.217,2.109
a,202663,0.000,0.000,36.000,0.076,-0.176,-1.460,2.116,9.383,2.270,2.065
a,202666,0.000,0.000,36.000,0.137,0.053,0.403,2.146,9.385,2.243,2.065
a,202670,0.000,0.000,36.000,-0.016,0.267,-0.055,2.121,9.357,2.223,2.021
a,202674,0.000,0.000,36.000,0.030,-0.069,0.281,2.134,9.349,2.247,2.021
a,202678,0.000,0.000,36.000,-0.123,0.053,0.891,2.131,9.400,2.239,2.373
a,202682,0.000,0.000,36.000,0.030,0.007,0.800,2.128,9.408,2.233,2.065
a,202686,0.000,0.000,36.000,-0.077,-0.054,0.800,2.115,9.385,2.233,2.065
a,202691,0.000,0.000,36.000,0.045,0.267,0.739,2.127,9.391,2.243,2.109
a,202694,0.000,0.000,36.000,0.091,-0.237,-0.208,2.140,9.386,2.252,2.065
a,202699,0.000,0.000,36.000,0.030,0.053,0.510,2.115,9.402,2.237,2.417
a,202702,0.000,0.000,36.000,0.030,0.083,-0.803,2.112,9.358,2.223,2.417
a,202706,0.000,0.000,36.000,-0.107,-0.085,0.143,2.121,9.394,2.241,2.021
a,202710,0.000,0.000,36.000,-0.123,0.007,0.540,2.119,9.376,2.228,2.021
a,202714,0.000,0.000,36.000,0.091,0.144,0.158,2.137,9.397,2.243,1.978
a,202718,0.000,0.000,36.000,-0.184,0.099,0.235,2.116,9.369,2.231,2.109
a,202722,0.000,0.000,36.000,0.106,-0.207,-1.613,2.115,9.401,2.258,1.978
a,202726,0.000,0.000,36.000,0.106,0.099,1.105,2.109,9.369,2.229,2.065
a,202730,0.000,0.000,36.000,-0.077,0.083,0.174,2.125,9.412,2.233,2.417
a,202734,0.000,0.000,36.000,0.030,0.114,0.555,2.143,9.380,2.260,2.109
a,202738,0.000,0.000,36.000,-0.016,0.038,-0.162,2.112,9.395,2.235,2.021
a,202742,0.000,0.000,36.000,0.137,-0.176,0.342,2.134,9.365,2.247,2.021
a,202746,0.000,0.000,36.000,-0.031,0.038,-0.529,2.128,9.378,2.233,2.109
a,202750,0.000,0.000,36.000,0.076,-0.191,-0.361,2.097,9.372,2.245,2.373
a,202755,0.000,0.000,36.000,0.137,-0.054,0.448,2.119,9.364,2.247,2.417
a,202758,0.000,0.000,36.000,0.030,-0.008,0.082,2.107,9.369,2.233,2.417
a,202762,0.000,0.000,36.000,-0.031,-0.008,-0.513,2.122,9.365,2.241,2.065
a,202766,0.000,0.000,36.000,0.137,0.053,0.784,2.125,9.386,2.258,2.065
a,202770,0.000,0.000,36.000,-0.123,0.038,0.128,2.132,9.390,2.233,2.065
a,202774,0.000,0.000,36.000,-0.077,-0.176,-0.254,2.128,9.378,2.223,2.065
a,202778,0.000,0.000,36.000,0.030,-0.130,0.296,2.125,9.383,2.254,2.021
a,202782,0.000,0.000,36.000,-0.077,0.221,0.739,2.128,9.385,2.245,2.373
a,202786,0.000,0.000,36.000,0.305,-0.176,0.265,2.100,9.353,2.247,2.021
a,202791,0.000,0.000,36.000,0.061,-0.130,-1.719,2.128,9.369,2.245,2.065
a,202794,0.000,0.000,36.000,-0.016,-0.008,0.296,2.132,9.389,2.237,2.065
a,202798,0.000,0.000,36.000,0.091,-0.008,0.265,2.132,9.378,2.252,2.065
a,202802,0.000,0.000,36.000,0.091,0.099,0.006,2.121,9.365,2.231,2.021
a,202806,0.000,0.000,36.000,-0.092,-0.008,-0.345,2.156,9.376,2.231,2.021
a,202811,0.000,0.000,36.000,0.091,0.038,0.403,2.112,9.358,2.229,2.109
a,202815,0.000,0.000,36.000,0.122,-0.115,-0.437,2.127,9.409,2.229,2.373
a,202819,0.000,0.000,36.000,0.030,-0.085,-0.193,2.143,9.388,2.241,2.109
a,202822,0.000,0.000,36.000,0.091,0.053,0.662,2.127,9.394,2.229,2.065
a,202826,0.000,0.000,36.000,0.091,-0.115,0.418,2.131,9.407,2.257,2.065
a,202830,0.000,0.000,36.000,-0.153,-0.191,-1.597,2.082,9.365,2.231,2.417
a,202835,0.000,0.000,36.000,-0.031,0.099,-0.529,2.138,9.371,2.243,2.417
a,202839,0.000,0.000,36.000,0.305,-0.176,-0.208,2.125,9.379,2.229,2.021
a,202842,0.000,0.000,36.000,-0.092,0.038,-0.712,2.131,9.416,2.237,2.021
a,202847,0.000,0.000,36.000,-0.016,-0.008,-0.071,2.134,9.379,2.222,2.065
a,202850,0.000,0.000,36.000,0.198,0.389,0.494,2.132,9.392,2.233,2.021
a,202854,0.000,0.000,36.000,-0.000,0.053,1.609,2.122,9.389,2.222,2.373
a,202858,0.000,0.000,36.000,-0.031,-0.222,-0.834,2.106,9.410,2.241,2.373
a,202862,0.000,0.000,36.000,-0.077,0.099,0.113,2.128,9.378,2.237,2.065
a,202866,0.000,0.000,36.000,-0.199,0.083,-0.697,2.119,9.386,2.248,2.417
a,202870,0.000,0.000,36.000,0.198,-0.069,-0.254,2.119,9.394,2.260,2.373
a,202874,0.000,0.000,36.000,0.030,-0.283,0.189,2.128,9.383,2.241,2.021
a,202878,0.000,0.000,36.000,0.137,-0.176,-0.223,2.132,9.384,2.235,2.021
a,202882,0.000,0.000,36.000,0.137,-0.130,-0.590,2.138,9.363,2.233,2.109
a,202886,0.000,0.000,36.000,0.091,-0.069,0.021,2.116,9.379,2.229,2.021
a,202890,0.000,0.000,36.000,-0.092,0.022,0.571,2.138,9.392,2.225,2.417
a,202895,0.000,0.000,36.000,0.030,-0.024,0.143,2.125,9.384,2.219,2.373
a,202898,0.000,0.000,36.000,0.259,-0.085,-0.422,2.119,9.376,2.233,2.109
a,202902,0.000,0.000,36.000,-0.016,-0.222,0.174,2.113,9.353,2.228,2.417
a,202906,0.000,0.000,36.000,-0.061,-0.024,-0.193,2.103,9.401,2.247,2.065
a,202910,0.000,0.000,36.000,-0.245,0.389,0.784,2.119,9.403,2.222,2.065
a,202914,0.000,0.000,36.000,0.091,-0.069,0.800,2.116,9.384,2.239,2.065
a,202918,0.000,0.000,36.000,-0.397,0.007,1.013,2.116,9.377,2.252,2.021
a,202922,0.000,0.000,36.000,-0.000,0.053,1.868,2.119,9.357,2.251,2.417
a,202926,0.000,0.000,36.000,-0.092,0.267,-0.590,2.112,9.358,2.231,2.065
a,202930,0.000,0.000,36.000,-0.016,0.221,0.739,2.121,9.403,2.228,2.021
a,202934,0.000,0.000,36.000,-0.077,0.038,0.418,2.115,9.363,2.206,2.065
a,202939,0.000,0.000,36.000,-0.123,0.099,0.342,2.140,9.380,2.233,2.065
a,202942,0.000,0.000,36.000,-0.107,0.053,1.059,2.131,9.360,2.251,2.021
a,202946,0.000,0.000,36.000,-0.184,0.205,0.052,2.125,9.396,2.237,2.461
a,202950,0.000,0.000,36.000,-0.245,-0.008,0.235,2.127,9.395,2.257,2.065
a,202954,0.000,0.000,36.000,0.030,-0.054,0.815,2.109,9.365,2.225,2.065
a,202959,0.000,0.000,36.000,-0.092,0.083,-0.422,2.134,9.386,2.233,2.417
a,202963,0.000,0.000,36.000,0.274,0.007,1.273,2.121,9.382,2.233,2.021
a,202967,0.000,0.000,36.000,0.030,0.205,-0.101,2.125,9.391,2.235,2.373
a,202970,0.000,0.000,36.000,0.030,0.099,0.357,2.097,9.358,2.216,2.021
a,202974,0.000,0.000,36.000,0.137,-0.176,-0.223,2.131,9.378,2.225,2.021
a,202978,0.000,0.000,36.000,0.091,0.007,0.952,2.113,9.408,2.252,2.021
a,202982,0.000,0.000,36.000,-0.077,0.038,-0.101,2.116,9.409,2.239,2.065
a,202986,0.000,0.000,36.000,-0.016,0.053,0.800,2.109,9.400,2.258,2.021
a,202991,0.000,0.000,36.000,0.091,0.038,0.143,2.125,9.380,2.204,2.461
a,202994,0.000,0.000,36.000,-0.138,-0.085,-0.574,2.101,9.386,2.219,2.021
a,202999,0.000,0.000,36.000,0.030,0.038,0.281,2.131,9.404,2.228,2.417
a,203002,0.000,0.000,36.000,-0.016,-0.176,0.082,2.121,9.361,2.217,2.065
a,203006,0.000,0.000,36.000,0.015,0.190,-0.315,2.127,9.394,2.248,2.021
a,203010,0.000,0.000,36.000,-0.016,0.083,0.067,2.109,9.388,2.231,2.021
a,203014,0.000,0.000,36.000,-0.077,0.038,-0.162,2.107,9.365,2.229,2.065
a,203018,0.000,0.000,36.000,0.137,-0.115,0.800,2.116,9.401,2.225,2.065
a,203022,0.000,0.000,36.000,0.091,0.114,0.403,2.138,9.400,2.237,2.021
a,203026,0.000,0.000,36.000,-0.123,-0.069,-0.086,2.125,9.392,2.223,2.065
a,203030,0.000,0.000,36.000,-0.260,-0.069,-1.231,2.112,9.374,2.248,2.021
a,203034,0.000,0.000,36.000,-0.016,-0.069,0.021,2.125,9.395,2.219,2.065
a,203038,0.000,0.000,36.000,0.076,0.022,-0.712,2.137,9.394,2.223,2.065
a,203042,0.000,0.000,36.000,-0.123,0.373,0.174,2.137,9.382,2.225,2.109
a,203046,0.000,0.000,36.000,0.030,0.221,0.998,2.132,9.395,2.254,2.373
a,203051,0.000,0.000,36.000,0.045,0.099,0.677,2.116,9.376,2.267,2.417
a,203054,0.000,0.000,36.000,-0.077,0.221,0.723,2.122,9.406,2.257,2.417
a,203058,0.000,0.000,36.000,-0.352,0.038,0.219,2.143,9.384,2.233,2.065
a,203062,0.000,0.000,36.000,0.091,-0.008,0.052,2.127,9.396,2.239,2.021
a,203066,0.000,0.000,36.000,0.091,0.160,0.494,2.131,9.388,2.241,2.417
a,203070,0.000,0.000,36.000,-0.031,0.083,-0.468,2.125,9.404,2.222,2.417
a,203074,0.000,0.000,36.000,-0.016,-0.100,0.815,2.140,9.390,2.241,2.065
a,203078,0.000,0.000,36.000,-0.016,-0.024,0.250,2.150,9.409,2.219,2.065
a,203082,0.000,0.000,36.000,-0.016,-0.222,0.082,2.112,9.385,2.247,2.109
a,203087,0.000,0.000,36.000,0.137,-0.085,-0.040,2.121,9.401,2.264,2.417
a,203091,0.000,0.000,36.000,-0.352,0.099,-0.254,2.127,9.369,2.217,2.065
a,203094,0.000,0.000,36.000,0.030,0.099,0.525,2.146,9.390,2.229,2.021
a,203098,0.000,0.000,36.000,-0.016,0.099,-0.055,2.127,9.373,2.237,2.417
a,203103,0.000,0.000,36.000,-0.199,-0.283,-0.300,2.140,9.394,2.235,2.417
a,203106,0.000,0.000,36.000,-0.016,-0.176,-0.208,2.127,9.377,2.233,2.065
a,203111,0.000,0.000,36.000,0.091,-0.008,0.174,2.125,9.374,2.237,2.021
a,203115,0.000,0.000,36.000,0.015,-0.146,0.677,2.112,9.395,2.236,2.373
a,203119,0.000,0.000,36.000,0.290,-0.222,-1.521,2.116,9.364,2.247,2.021
a,203122,0.000,0.000,36.000,-0.031,0.007,0.235,2.112,9.384,2.260,2.065
a,203126,0.000,0.000,36.000,-0.031,-0.008,-0.681,2.144,9.382,2.229,2.417
a,203130,0.000,0.000,36.000,0.076,0.114,-0.162,2.122,9.380,2.225,2.417
a,203134,0.000,0.000,36.000,0.305,-0.207,0.845,2.138,9.358,2.237,2.021
a,203138,0.000,0.000,36.000,0.122,0.038,1.151,2.106,9.388,2.258,2.109
a,203143,0.000,0.000,36.000,0.381,-0.054,1.700,2.131,9.395,2.270,2.461
a,203146,0.000,0.000,36.000,-0.031,-0.008,-0.910,2.115,9.402,2.243,2.021
a,203150,0.000,0.000,36.000,-0.184,0.038,0.006,2.116,9.364,2.248,2.109
a,203155,0.000,0.000,36.000,-0.138,-0.008,-0.452,2.127,9.382,2.235,2.417
a,203158,0.000,0.000,36.000,0.137,0.007,0.555,2.112,9.382,2.229,2.021
a,203162,0.000,0.000,36.000,0.106,-0.100,-1.094,2.100,9.380,2.242,2.065
a,203166,0.000,0.000,36.000,0.183,-0.237,-1.460,2.128,9.361,2.245,2.021
a,203170,0.000,0.000,36.000,-0.016,-0.008,0.281,2.140,9.357,2.231,2.021
a,203174,0.000,0.000,36.000,-0.016,0.038,-0.101,2.137,9.378,2.241,2.021
a,203178,0.000,0.000,36.000,-0.107,0.160,-0.758,2.107,9.395,2.211,2.065
a,203182,0.000,0.000,36.000,-0.077,-0.069,0.143,2.115,9.376,2.223,2.065
a,203186,0.000,0.000,36.000,-0.092,-0.008,-0.910,2.131,9.374,2.239,2.065
a,203190,0.000,0.000,36.000,-0.016,0.175,1.532,2.143,9.397,2.217,2.065
a,203194,0.000,0.000,36.000,-0.138,0.038,-0.422,2.112,9.392,2.239,2.109
a,203198,0.000,0.000,36.000,0.030,0.038,0.571,2.134,9.395,2.258,2.065
a,203203,0.000,0.000,36.000,-0.000,0.190,0.235,2.154,9.388,2.247,2.065
a,203206,0.000,0.000,36.000,0.137,-0.176,0.006,2.122,9.355,2.228,2.021
a,203210,0.000,0.000,36.000,-0.016,0.221,0.891,2.088,9.391,2.245,2.065
a,203214,0.000,0.000,36.000,-0.016,0.205,-0.086,2.138,9.378,2.212,2.065
a,203218,0.000,0.000,36.000,0.091,-0.069,0.235,2.113,9.376,2.215,2.065
a,203222,0.000,0.000,36.000,0.091,-0.222,0.219,2.137,9.388,2.245,2.021
a,203226,0.000,0.000,36.000,-0.138,-0.085,-0.681,2.122,9.384,2.260,2.417
a,203230,0.000,0.000,36.000,-0.290,0.160,0.739,2.100,9.397,2.260,2.461
a,203234,0.000,0.000,36.000,0.030,-0.222,-0.193,2.121,9.385,2.241,2.021
a,203239,0.000,0.000,36.000,0.183,-0.069,-0.315,2.138,9.389,2.216,2.021
a,203242,0.000,0.000,36.000,-0.229,-0.085,-0.239,2.112,9.395,2.231,2.417
a,203246,0.000,0.000,36.000,-0.016,0.022,0.067,2.127,9.388,2.233,2.065
a,203250,0.000,0.000,36.000,-0.077,0.053,0.662,2.119,9.398,2.231,2.065
a,203254,0.000,0.000,36.000,0.030,-0.008,0.189,2.107,9.378,2.235,2.461
a,203259,0.000,0.000,36.000,-0.123,-0.054,0.968,2.116,9.383,2.225,2.021
a,203263,0.000,0.000,36.000,-0.123,0.083,-0.086,2.125,9.380,2.251,2.417
a,203267,0.000,0.000,36.000,-0.061,0.007,1.609,2.107,9.391,2.245,2.417
a,203270,0.000,0.000,36.000,-0.092,0.007,-2.208,2.109,9.401,2.223,2.065
a,203274,0.000,0.000,36.000,0.106,-0.161,1.044,2.115,9.389,2.231,2.065
a,203278,0.000,0.000,36.000,-0.229,-0.207,1.227,2.127,9.391,2.233,2.417
a,203282,0.000,0.000,36.000,0.091,0.221,0.448,2.138,9.347,2.225,2.021
a,203287,0.000,0.000,36.000,0.030,0.144,0.235,2.134,9.382,2.241,2.065
a,203291,0.000,0.000,36.000,0.030,0.099,0.113,2.152,9.391,2.247,2.109
a,203294,0.000,0.000,36.000,-0.031,-0.069,-1.124,2.125,9.357,2.235,2.065
a,203299,0.000,0.000,36.000,-0.016,0.129,-0.254,2.140,9.391,2.245,2.065
a,203302,0.000,0.000,36.000,0.198,-0.054,0.525,2.144,9.397,2.239,1.978
a,203306,0.000,0.000,36.000,-0.138,0.099,-0.529,2.116,9.364,2.228,2.065
a,203310,0.000,0.000,36.000,-0.077,-0.069,0.143,2.134,9.397,2.251,2.417
a,203314,0.000,0.000,36.000,-0.016,0.114,0.632,2.138,9.358,2.228,2.417
a,203318,0.000,0.000,36.000,-0.016,-0.176,0.281,2.146,9.380,2.231,2.065
a,203322,0.000,0.000,36.000,0.152,-0.054,1.807,2.107,9.374,2.235,2.065
a,203326,0.000,0.000,36.000,-0.092,0.267,-0.437,2.132,9.365,2.239,2.065
a,203330,0.000,0.000,36.000,0.137,-0.085,-1.017,2.109,9.380,2.248,2.417
a,203334,0.000,0.000,36.000,0.213,0.053,1.532,2.131,9.374,2.241,2.065
a,203338,0.000,0.000,36.000,0.183,0.022,-0.544,2.137,9.388,2.231,2.021
a,203342,0.000,0.000,36.000,0.030,-0.390,-0.193,2.090,9.394,2.228,2.461
a,203346,0.000,0.000,36.000,0.091,-0.176,0.052,2.137,9.388,2.228,2.065
a,203350,0.000,0.000,36.000,-0.031,-0.176,-0.742,2.116,9.377,2.228,2.065
a,203355,0.000,0.000,36.000,0.137,-0.008,-0.269,2.125,9.385,2.239,2.021
a,203358,0.000,0.000,36.000,0.122,-0.039,0.403,2.138,9.398,2.234,2.065
a,203362,0.000,0.000,36.000,-0.092,-0.085,-0.345,2.121,9.395,2.248,2.065
a,203366,0.000,0.000,36.000,0.137,-0.069,0.342,2.132,9.410,2.219,2.065
a,203370,0.000,0.000,36.000,0.259,-0.008,0.158,2.134,9.388,2.219,2.021
a,203374,0.000,0.000,36.000,0.091,0.144,0.219,2.140,9.371,2.258,2.021
a,203378,0.000,0.000,36.000,0.122,-0.069,-0.544,2.128,9.388,2.219,2.065
a,203382,0.000,0.000,36.000,-0.199,0.129,-0.636,2.132,9.394,2.243,2.417
a,203386,0.000,0.000,36.000,0.183,0.038,-0.666,2.119,9.384,2.235,2.109
a,203391,0.000,0.000,36.000,-0.138,0.144,-0.468,2.150,9.372,2.229,2.021
a,203394,0.000,0.000,36.000,0.106,0.022,0.052,2.112,9.416,2.225,2.065
a,203398,0.000,0.000,36.000,-0.077,0.114,0.784,2.122,9.406,2.235,2.065
a,203402,0.000,0.000,36.000,0.137,0.099,0.113,2.112,9.378,2.228,2.109
a,203406,0.000,0.000,36.000,0.076,-0.069,-1.017,2.112,9.392,2.254,2.021
a,203411,0.000,0.000,36.000,0.091,-0.115,-0.208,2.115,9.389,2.225,2.065
a,203415,0.000,0.000,36.000,-0.092,0.007,-0.086,2.140,9.397,2.229,2.065
a,203418,0.000,0.000,36.000,0.183,0.099,-1.261,2.103,9.342,2.243,2.021
a,203422,0.000,0.000,36.000,0.091,-0.176,-0.254,2.138,9.342,2.229,2.417
a,203426,0.000,0.000,36.000,0.030,-0.115,-0.239,2.122,9.407,2.228,2.021
a,203430,0.000,0.000,36.000,0.091,-0.008,0.632,2.116,9.386,2.233,2.065
a,203434,0.000,0.000,36.000,-0.077,0.312,0.219,2.138,9.402,2.223,2.065
a,203439,0.000,0.000,36.000,0.030,-0.176,-0.071,2.132,9.397,2.237,2.109
a,203442,0.000,0.000,36.000,-0.184,-0.115,0.296,2.127,9.394,2.235,2.021
a,203447,0.000,0.000,36.000,-0.016,0.007,0.479,2.137,9.428,2.231,2.065
a,203450,0.000,0.000,36.000,-0.016,-0.024,0.143,2.138,9.377,2.252,2.065
a,203454,0.000,0.000,36.000,-0.031,-0.024,-0.452,2.134,9.394,2.254,2.021
a,203458,0.000,0.000,36.000,-0.016,-0.115,-0.040,2.140,9.382,2.235,2.065
a,203462,0.000,0.000,36.000,-0.000,0.129,-1.887,2.103,9.369,2.223,2.021
a,203466,0.000,0.000,36.000,0.091,-0.115,0.281,2.138,9.390,2.239,2.021
a,203470,0.000,0.000,36.000,0.137,0.099,-0.284,2.127,9.418,2.241,2.021
a,203474,0.000,0.000,36.000,-0.092,0.267,-0.315,2.088,9.374,2.237,2.065
a,203478,0.000,0.000,36.000,0.030,0.007,0.571,2.140,9.396,2.231,2.373
a,203482,0.000,0.000,36.000,0.137,-0.390,-0.162,2.121,9.363,2.264,2.109
a,203486,0.000,0.000,36.000,0.366,0.099,0.006,2.144,9.349,2.228,2.065
a,203490,0.000,0.000,36.000,0.030,0.099,-0.223,2.134,9.346,2.222,2.065
a,203494,0.000,0.000,36.000,-0.000,0.205,1.227,2.131,9.364,2.229,2.065
a,203498,0.000,0.000,36.000,-0.031,0.099,-0.819,2.137,9.351,2.243,2.065
a,203503,0.000,0.000,36.000,-0.245,0.144,0.052,2.134,9.367,2.239,2.417
a,203506,0.000,0.000,36.000,-0.016,-0.237,0.296,2.127,9.373,2.260,2.065
a,203510,0.000,0.000,36.000,-0.031,-0.008,-0.452,2.125,9.386,2.235,2.065
a,203514,0.000,0.000,36.000,-0.046,-0.054,-0.803,2.127,9.365,2.252,2.065
a,203518,0.000,0.000,36.000,0.183,0.038,-0.376,2.128,9.367,2.241,2.021
a,203523,0.000,0.000,36.000,-0.016,-0.161,0.739,2.125,9.359,2.245,2.065
a,203526,0.000,0.000,36.000,-0.199,-0.069,-1.552,2.119,9.354,2.241,2.065
a,203531,0.000,0.000,36.000,-0.245,0.144,0.067,2.127,9.376,2.245,2.065
a,203534,0.000,0.000,36.000,0.137,0.053,0.815,2.122,9.382,2.248,2.021
a,203539,0.000,0.000,36.000,-0.092,-0.115,-0.742,2.132,9.364,2.223,2.417
a,203543,0.000,0.000,36.000,0.137,0.114,0.403,2.146,9.372,2.239,2.417
a,203546,0.000,0.000,36.000,0.091,-0.069,-0.086,2.132,9.382,2.231,2.065
a,203550,0.000,0.000,36.000,0.198,-0.054,0.555,2.131,9.359,2.251,2.021
a,203554,0.000,0.000,36.000,0.122,0.144,-0.758,2.122,9.357,2.241,2.065
a,203558,0.000,0.000,36.000,-0.184,0.221,0.739,2.121,9.392,2.239,2.065
a,203563,0.000,0.000,36.000,-0.123,0.114,0.677,2.140,9.361,2.217,1.978
a,203567,0.000,0.000,36.000,-0.077,0.099,-0.055,2.134,9.367,2.237,2.021
a,203570,0.000,0.000,36.000,-0.199,-0.115,-0.529,2.125,9.371,2.270,2.461
a,203574,0.000,0.000,36.000,-0.199,0.175,0.403,2.137,9.347,2.239,2.065
a,203578,0.000,0.000,36.000,-0.031,0.267,-0.636,2.103,9.374,2.231,2.417
a,203582,0.000,0.000,36.000,0.122,-0.176,-1.078,2.121,9.353,2.243,2.021
a,203586,0.000,0.000,36.000,-0.031,0.022,0.571,2.119,9.372,2.255,2.065
a,203591,0.000,0.000,36.000,-0.153,-0.207,-0.468,2.109,9.373,2.233,2.417
a,203594,0.000,0.000,36.000,-0.077,-0.115,0.189,2.138,9.329,2.254,2.021
a,203599,0.000,0.000,36.000,-0.016,-0.054,0.571,2.097,9.357,2.248,2.065
a,203603,0.000,0.000,36.000,-0.123,0.099,0.158,2.148,9.353,2.229,2.065
a,203606,0.000,0.000,36.000,0.137,-0.008,-0.040,2.122,9.382,2.239,2.021
a,203610,0.000,0.000,36.000,-0.123,0.007,0.525,2.112,9.345,2.241,2.021
a,203614,0.000,0.000,36.000,-0.016,-0.054,0.845,2.109,9.349,2.223,2.109
a,203618,0.000,0.000,36.000,0.122,-0.176,-1.032,2.127,9.365,2.235,2.021
a,203622,0.000,0.000,36.000,0.183,0.038,-0.620,2.128,9.349,2.235,2.021
a,203626,0.000,0.000,36.000,0.091,-0.100,0.616,2.116,9.367,2.228,2.021
a,203630,0.000,0.000,36.000,0.076,-0.130,-1.231,2.148,9.364,2.239,2.109
a,203634,0.000,0.000,36.000,-0.123,-0.069,-0.254,2.121,9.370,2.212,2.065
a,203638,0.000,0.000,36.000,-0.138,0.144,-0.330,2.113,9.322,2.251,2.065
a,203642,0.000,0.000,36.000,0.030,-0.176,-0.086,2.137,9.339,2.241,2.021
a,203646,0.000,0.000,36.000,-0.016,0.160,0.677,2.084,9.353,2.235,2.109
a,203650,0.000,0.000,36.000,-0.077,0.053,0.845,2.107,9.371,2.241,2.065
a,203655,0.000,0.000,36.000,0.091,0.038,0.265,2.107,9.353,2.223,2.373
a,203658,0.000,0.000,36.000,-0.138,-0.344,-0.636,2.132,9.360,2.225,1.978
a,203662,0.000,0.000,36.000,-0.031,0.205,-0.803,2.101,9.336,2.228,2.065
a,203666,0.000,0.000,36.000,-0.016,-0.176,-0.239,2.121,9.336,2.229,2.065
a,203670,0.000,0.000,36.000,0.015,0.038,-0.376,2.113,9.367,2.235,2.021
a,203674,0.000,0.000,36.000,0.015,-0.115,-0.803,2.128,9.348,2.223,2.065
a,203678,0.000,0.000,36.000,0.091,0.038,0.006,2.128,9.382,2.217,2.065
a,203682,0.000,0.000,36.000,0.198,0.144,0.036,2.106,9.351,2.254,2.021
a,203687,0.000,0.000,36.000,0.091,0.114,0.433,2.132,9.363,2.257,2.417
a,203690,0.000,0.000,36.000,0.015,-0.085,-1.384,2.128,9.366,2.260,2.065
a,203694,0.000,0.000,36.000,-0.031,-0.008,-1.231,2.119,9.348,2.257,2.021
a,203698,0.000,0.000,36.000,-0.016,0.099,-0.254,2.140,9.400,2.241,2.065
a,203702,0.000,0.000,36.000,0.076,-0.115,-0.376,2.131,9.370,2.245,2.065
a,203707,0.000,0.000,36.000,-0.184,0.038,0.219,2.125,9.345,2.251,2.109
a,203711,0.000,0.000,36.000,0.091,-0.008,0.281,2.140,9.346,2.243,2.417
a,203714,0.000,0.000,36.000,-0.077,-0.069,-0.147,2.121,9.360,2.243,2.021
a,203718,0.000,0.000,36.000,-0.092,-0.176,-1.460,2.128,9.385,2.248,2.065
a,203722,0.000,0.000,36.000,-0.031,-0.069,-0.620,2.119,9.372,2.241,2.065
a,203726,0.000,0.000,36.000,-0.123,0.160,0.418,2.116,9.385,2.237,2.065
a,203730,0.000,0.000,36.000,-0.016,0.022,0.281,2.107,9.377,2.235,2.021
a,203734,0.000,0.000,36.000,0.091,0.022,0.006,2.112,9.358,2.243,2.065
a,203739,0.000,0.000,36.000,0.045,-0.069,0.922,2.127,9.380,2.231,2.417
a,203742,0.000,0.000,36.000,-0.077,0.038,0.235,2.131,9.333,2.233,2.065
a,203746,0.000,0.000,36.000,-0.153,-0.100,-0.956,2.113,9.352,2.227,2.065
a,203751,0.000,0.000,36.000,0.030,0.160,0.571,2.166,9.349,2.235,2.417
a,203754,0.000,0.000,36.000,-0.016,-0.008,0.296,2.138,9.372,2.231,2.021
a,203758,0.000,0.000,36.000,-0.123,-0.115,0.128,2.119,9.367,2.222,2.065
a,203762,0.000,0.000,36.000,0.045,-0.024,-0.071,2.109,9.390,2.247,2.021
a,203766,0.000,0.000,36.000,-0.077,0.129,-0.147,2.125,9.372,2.243,2.065
a,203770,0.000,0.000,36.000,-0.138,0.038,-0.742,2.109,9.367,2.248,2.373
a,203774,0.000,0.000,36.000,-0.077,-0.176,-0.086,2.134,9.346,2.252,2.065
a,203778,0.000,0.000,36.000,0.137,-0.222,0.418,2.150,9.383,2.228,2.021
a,203782,0.000,0.000,36.000,0.030,-0.283,0.296,2.115,9.360,2.243,2.065
a,203786,0.000,0.000,36.000,-0.123,0.144,0.006,2.137,9.360,2.228,2.065
a,203790,0.000,0.000,36.000,-0.092,-0.008,-0.315,2.148,9.364,2.252,2.065
a,203794,0.000,0.000,36.000,-0.092,-0.176,-0.468,2.128,9.380,2.237,2.065
a,203798,0.000,0.000,36.000,-0.077,-0.008,0.968,2.131,9.329,2.228,2.021
a,203803,0.000,0.000,36.000,0.030,-0.024,0.143,2.081,9.358,2.251,2.065
a,203806,0.000,0.000,36.000,0.030,0.099,0.052,2.131,9.389,2.258,2.417
a,203810,0.000,0.000,36.000,-0.077,0.038,0.906,2.148,9.364,2.233,2.373
a,203814,0.000,0.000,36.000,-0.016,-0.176,0.433,2.119,9.340,2.263,2.021
a,203818,0.000,0.000,36.000,0.091,0.312,-0.284,2.113,9.339,2.245,2.065
a,203822,0.000,0.000,36.000,-0.138,0.114,0.113,2.148,9.370,2.239,2.065
a,203826,0.000,0.000,36.000,0.030,-0.100,0.693,2.132,9.353,2.223,2.373
a,203830,0.000,0.000,36.000,-0.123,0.160,0.510,2.128,9.363,2.248,2.417
a,203835,0.000,0.000,36.000,0.015,0.068,0.891,2.127,9.347,2.234,2.021
a,203839,0.000,0.000,36.000,-0.092,-0.069,-0.315,2.116,9.331,2.209,2.021
a,203842,0.000,0.000,36.000,-0.153,0.160,-0.865,2.127,9.366,2.236,2.109
a,203846,0.000,0.000,36.000,-0.123,0.038,0.571,2.144,9.372,2.257,2.417
a,203850,0.000,0.000,36.000,0.106,0.221,1.105,2.122,9.361,2.228,2.021
a,203855,0.000,0.000,36.000,0.213,0.267,1.593,2.143,9.370,2.247,2.461
a,203858,0.000,0.000,36.000,-0.046,0.022,-1.735,2.138,9.341,2.241,2.109
a,203863,0.000,0.000,36.000,0.015,0.007,-0.086,2.121,9.351,2.225,2.417
a,203867,0.000,0.000,36.000,0.366,-0.085,-0.147,2.134,9.401,2.222,2.065
a,203870,0.000,0.000,36.000,0.244,-0.100,0.006,2.128,9.361,2.234,2.065
a,203874,0.000,0.000,36.000,-0.077,-0.054,0.739,2.116,9.377,2.235,2.065
a,203878,0.000,0.000,36.000,-0.016,-0.161,0.968,2.115,9.349,2.215,2.021
a,203882,0.000,0.000,36.000,-0.046,0.083,-1.719,2.132,9.357,2.216,2.461
a,203887,0.000,0.000,36.000,-0.046,-0.100,-0.529,2.122,9.401,2.219,2.461
a,203891,0.000,0.000,36.000,0.045,0.099,1.120,2.131,9.391,2.239,2.065
a,203894,0.000,0.000,36.000,0.198,-0.161,0.403,2.134,9.351,2.248,2.109
a,203899,0.000,0.000,36.000,0.015,0.053,-0.269,2.112,9.361,2.254,2.065
a,203902,0.000,0.000,36.000,0.183,-0.069,-0.712,2.107,9.359,2.223,2.065
a,203906,0.000,0.000,36.000,0.198,-0.222,0.342,2.121,9.359,2.260,2.021
a,203910,0.000,0.000,36.000,-0.061,-0.100,1.029,2.122,9.354,2.241,2.461
a,203914,0.000,0.000,36.000,0.076,-0.115,-0.849,2.121,9.365,2.239,2.109
a,203918,0.000,0.000,36.000,-0.092,-0.115,-1.292,2.119,9.357,2.252,2.065
a,203922,0.000,0.000,36.000,0.137,0.129,0.219,2.113,9.363,2.223,2.417
a,203926,0.000,0.000,36.000,0.106,0.114,1.197,2.128,9.342,2.245,2.021
a,203930,0.000,0.000,36.000,-0.092,0.022,0.677,2.146,9.379,2.216,1.978
a,203934,0.000,0.000,36.000,-0.092,-0.008,-0.910,2.131,9.342,2.254,2.065
a,203938,0.000,0.000,36.000,-0.138,-0.115,-0.315,2.121,9.355,2.248,2.065
a,203942,0.000,0.000,36.000,-0.123,0.099,0.677,2.137,9.394,2.245,2.065
a,203946,0.000,0.000,36.000,0.030,-0.100,1.013,2.134,9.353,2.251,2.065
a,203951,0.000,0.000,36.000,0.076,0.038,-0.926,2.148,9.340,2.233,2.417
a,203954,0.000,0.000,36.000,-0.184,0.022,0.067,2.134,9.370,2.217,2.065
a,203958,0.000,0.000,36.000,-0.016,0.144,0.158,2.131,9.351,2.231,2.065
a,203962,0.000,0.000,36.000,-0.016,0.007,0.479,2.116,9.361,2.222,2.021
a,203966,0.000,0.000,36.000,-0.016,-0.085,0.082,2.138,9.380,2.252,2.065
a,203970,0.000,0.000,36.000,0.076,-0.176,-0.483,2.154,9.360,2.228,2.461
a,203974,0.000,0.000,36.000,0.045,0.099,1.013,2.131,9.372,2.222,2.021
a,203978,0.000,0.000,36.000,0.137,-0.008,0.174,2.115,9.360,2.222,2.417
a,203982,0.000,0.000,36.000,0.015,0.282,0.158,2.119,9.392,2.240,1.978
a,203987,0.000,0.000,36.000,-0.123,-0.222,0.128,2.134,9.373,2.225,2.021
a,203990,0.000,0.000,36.000,0.091,-0.085,-0.254,2.128,9.335,2.257,2.065
a,203994,0.000,0.000,36.000,-0.077,0.205,0.464,2.121,9.319,2.239,2.065
a,203998,0.000,0.000,36.000,-0.138,-0.176,-0.345,2.154,9.376,2.239,2.021
a,204002,0.000,0.000,36.000,-0.260,0.144,-0.636,2.144,9.371,2.247,2.065
a,204007,0.000,0.000,36.000,0.015,0.038,-0.483,2.128,9.367,2.233,2.417
a,204011,0.000,0.000,36.000,-0.123,0.038,0.739,2.137,9.394,2.241,2.417
a,204014,0.000,0.000,36.000,0.091,0.282,0.540,2.119,9.371,2.237,2.417
a,204018,0.000,0.000,36.000,-0.138,0.099,-0.483,2.115,9.380,2.217,2.417
a,204022,0.000,0.000,36.000,0.030,0.053,0.677,2.131,9.378,2.247,2.373
a,204026,0.000,0.000,36.000,-0.016,0.038,0.052,2.107,9.360,2.215,2.109
a,204030,0.000,0.000,36.000,0.030,0.053,0.448,2.119,9.371,2.233,2.021
a,204034,0.000,0.000,36.000,0.259,0.160,0.403,2.115,9.371,2.237,2.065
a,204039,0.000,0.000,36.000,0.183,0.221,0.143,2.148,9.361,2.210,2.417
a,204042,0.000,0.000,36.000,-0.245,0.038,-0.269,2.144,9.380,2.252,2.065
a,204047,0.000,0.000,36.000,-0.184,-0.085,0.372,2.128,9.366,2.239,2.461
a,204051,0.000,0.000,36.000,0.091,0.144,-0.223,2.132,9.347,2.237,2.065
a,204054,0.000,0.000,36.000,0.122,-0.115,-0.483,2.127,9.373,2.223,2.417
a,204058,0.000,0.000,36.000,-0.016,-0.069,-0.208,2.131,9.370,2.251,2.109
a,204062,0.000,0.000,36.000,-0.306,0.099,-0.651,2.132,9.374,2.233,2.021
a,204066,0.000,0.000,36.000,-0.092,-0.191,-0.345,2.116,9.364,2.233,2.021
a,204070,0.000,0.000,36.000,0.030,-0.130,-0.681,2.143,9.395,2.233,2.109
a,204074,0.000,0.000,36.000,-0.290,-0.130,0.143,2.127,9.380,2.248,2.065
a,204078,0.000,0.000,36.000,0.198,0.007,0.800,2.127,9.364,2.235,2.109
a,204082,0.000,0.000,36.000,0.076,0.007,-0.208,2.106,9.372,2.263,2.065
a,204086,0.000,0.000,36.000,-0.077,-0.054,0.479,2.138,9.364,2.247,2.065
a,204090,0.000,0.000,36.000,0.030,0.114,0.723,2.143,9.382,2.267,2.417
a,204094,0.000,0.000,36.000,0.122,-0.176,-0.544,2.113,9.353,2.248,2.021
a,204098,0.000,0.000,36.000,0.091,-0.069,-0.147,2.116,9.374,2.235,2.065
a,204103,0.000,0.000,36.000,0.137,0.190,-0.055,2.119,9.363,2.247,2.461
a,204106,0.000,0.000,36.000,-0.153,-0.161,-0.529,2.127,9.377,2.233,2.109
a,204110,0.000,0.000,36.000,0.183,-0.222,-0.849,2.146,9.360,2.225,2.417
a,204114,0.000,0.000,36.000,-0.123,0.129,1.044,2.132,9.376,2.249,2.417
a,204118,0.000,0.000,36.000,0.198,-0.054,0.830,2.144,9.349,2.216,2.417
a,204122,0.000,0.000,36.000,-0.092,0.236,0.097,2.143,9.395,2.219,2.373
a,204126,0.000,0.000,36.000,0.366,-0.008,0.006,2.121,9.336,2.228,2.021
a,204130,0.000,0.000,36.000,-0.184,0.267,-0.162,2.134,9.370,2.239,2.417
a,204134,0.000,0.000,36.000,-0.061,0.053,1.380,2.127,9.359,2.241,2.417
a,204139,0.000,0.000,36.000,-0.016,-0.054,0.906,2.137,9.355,2.258,2.065
a,204142,0.000,0.000,36.000,0.137,0.038,0.219,2.144,9.371,2.239,2.417
a,204146,0.000,0.000,36.000,-0.092,0.175,0.998,2.128,9.359,2.234,2.417
a,204150,0.000,0.000,36.000,0.091,-0.085,0.235,2.115,9.355,2.222,2.373
a,204154,0.000,0.000,36.000,-0.031,-0.008,-1.216,2.096,9.340,2.225,2.065
a,204158,0.000,0.000,36.000,-0.123,0.144,-0.223,2.116,9.374,2.229,2.021
a,204163,0.000,0.000,36.000,0.076,-0.008,-0.529,2.119,9.360,2.239,2.417
a,204167,0.000,0.000,36.000,0.183,-0.008,-0.819,2.121,9.364,2.235,2.461
a,204170,0.000,0.000,36.000,0.259,0.099,0.036,2.127,9.355,2.229,2.065
a,204174,0.000,0.000,36.000,0.137,0.144,-0.284,2.113,9.335,2.235,2.109
a,204178,0.000,0.000,36.000,0.106,0.221,1.410,2.122,9.355,2.248,2.065
a,204182,0.000,0.000,36.000,-0.199,0.144,-0.315,2.137,9.346,2.237,2.065
a,204187,0.000,0.000,36.000,-0.077,-0.115,-0.147,2.121,9.374,2.264,2.417
a,204191,0.000,0.000,36.000,-0.031,-0.222,-0.941,2.097,9.367,2.231,2.461
a,204194,0.000,0.000,36.000,0.061,-0.115,1.303,2.138,9.369,2.223,2.417
a,204199,0.000,0.000,36.000,0.198,0.099,0.342,2.134,9.331,2.264,2.417
a,204202,0.000,0.000,36.000,0.091,0.007,0.418,2.140,9.371,2.228,2.021
a,204206,0.000,0.000,36.000,-0.077,-0.008,-0.239,2.128,9.371,2.225,2.109
a,204210,0.000,0.000,36.000,0.198,0.038,0.036,2.144,9.396,2.245,2.461
a,204214,0.000,0.000,36.000,0.183,0.312,-0.605,2.134,9.389,2.222,2.065
a,204218,0.000,0.000,36.000,0.045,0.053,1.151,2.156,9.351,2.252,2.065
a,204222,0.000,0.000,36.000,-0.260,-0.130,-0.345,2.131,9.383,2.222,2.065
a,204226,0.000,0.000,36.000,0.198,-0.115,0.006,2.131,9.355,2.216,2.417
a,204230,0.000,0.000,36.000,-0.077,0.053,0.510,2.103,9.363,2.241,2.109
a,204234,0.000,0.000,36.000,-0.153,-0.161,-0.742,2.116,9.379,2.248,1.978
a,204238,0.000,0.000,36.000,-0.123,0.038,-0.055,2.112,9.351,2.233,1.978
a,204242,0.000,0.000,36.000,-0.107,-0.054,1.227,2.121,9.371,2.243,2.065
a,204246,0.000,0.000,36.000,-0.138,-0.069,-1.185,2.143,9.335,2.235,2.021
a,204251,0.000,0.000,36.000,0.183,-0.008,-0.758,2.106,9.382,2.239,2.417
a,204254,0.000,0.000,36.000,0.076,-0.222,-1.032,2.148,9.403,2.225,2.065
a,204258,0.000,0.000,36.000,-0.000,0.160,1.548,2.119,9.369,2.257,2.109
a,204262,0.000,0.000,36.000,0.137,-0.207,0.632,2.131,9.376,2.258,2.065
a,204266,0.000,0.000,36.000,-0.016,0.038,-0.147,2.146,9.379,2.258,2.021
a,204270,0.000,0.000,36.000,-0.016,0.282,0.418,2.107,9.349,2.228,2.461
a,204274,0.000,0.000,36.000,-0.077,-0.100,0.433,2.140,9.342,2.235,2.065
a,204278,0.000,0.000,36.000,-0.260,0.038,-0.437,2.134,9.345,2.233,2.065
a,204282,0.000,0.000,36.000,0.091,-0.161,0.510,2.119,9.388,2.245,2.065
a,204287,0.000,0.000,36.000,0.076,-0.176,-0.376,2.127,9.377,2.223,2.065
a,204291,0.000,0.000,36.000,0.122,-0.298,-1.399,2.112,9.352,2.228,2.065
a,204294,0.000,0.000,36.000,-0.016,-0.069,0.082,2.132,9.349,2.229,2.021
a,204298,0.000,0.000,36.000,0.244,-0.069,-0.376,2.122,9.353,2.231,2.065
a,204302,0.000,0.000,36.000,-0.138,-0.115,-0.910,2.146,9.371,2.252,2.065
a,204306,0.000,0.000,36.000,-0.245,-0.054,0.525,2.119,9.364,2.237,2.065
a,204311,0.000,0.000,36.000,0.213,0.160,1.090,2.138,9.389,2.243,2.065
a,204315,0.000,0.000,36.000,0.137,0.022,0.342,2.128,9.379,2.215,2.461
a,204318,0.000,0.000,36.000,0.198,-0.054,0.952,2.125,9.360,2.239,2.065
a,204322,0.000,0.000,36.000,0.137,-0.069,0.357,2.122,9.346,2.241,2.021
a,204326,0.000,0.000,36.000,0.137,-0.069,0.006,2.125,9.364,2.219,2.461
a,204330,0.000,0.000,36.000,-0.077,0.022,0.128,2.121,9.377,2.243,2.461
a,204334,0.000,0.000,36.000,0.106,-0.024,-0.086,2.107,9.377,2.237,2.065
a,204339,0.000,0.000,36.000,-0.016,-0.024,0.143,2.112,9.412,2.248,2.417
a,204342,0.000,0.000,36.000,-0.138,-0.008,-0.590,2.119,9.363,2.231,2.065
a,204346,0.000,0.000,36.000,0.198,0.007,0.403,2.127,9.353,2.225,2.021
a,204351,0.000,0.000,36.000,0.045,-0.054,1.624,2.125,9.360,2.245,2.021
a,204354,0.000,0.000,36.000,0.198,0.038,0.097,2.116,9.370,2.263,2.021
a,204358,0.000,0.000,36.000,0.183,-0.115,-1.124,2.116,9.324,2.225,2.065
a,204362,0.000,0.000,36.000,0.061,0.282,-0.483,2.112,9.369,2.239,2.021
a,204366,0.000,0.000,36.000,0.122,-0.176,-0.437,2.128,9.349,2.243,2.021
a,204370,0.000,0.000,36.000,-0.077,-0.130,0.143,2.127,9.370,2.231,2.021
a,204374,0.000,0.000,36.000,-0.016,0.114,0.662,2.112,9.357,2.248,2.065
a,204378,0.000,0.000,36.000,-0.000,0.114,-0.376,2.121,9.366,2.240,2.065
a,204382,0.000,0.000,36.000,0.076,-0.008,-0.544,2.134,9.367,2.248,2.021
a,204386,0.000,0.000,36.000,0.091,-0.008,-0.147,2.138,9.351,2.252,2.109
a,204390,0.000,0.000,36.000,-0.031,-0.008,-0.529,2.125,9.389,2.233,2.021
a,204394,0.000,0.000,36.000,0.015,-0.008,-0.300,2.113,9.358,2.229,2.021
a,204398,0.000,0.000,36.000,0.183,0.236,0.922,2.122,9.390,2.245,2.065
a,204403,0.000,0.000,36.000,-0.092,0.282,-0.055,2.113,9.376,2.229,2.417
a,204406,0.000,0.000,36.000,-0.138,-0.069,-0.620,2.122,9.374,2.222,2.021
a,204410,0.000,0.000,36.000,0.198,0.022,0.113,2.144,9.377,2.237,2.373
