HEADER,TIME_MS,SV_DRV,SV_STR,SV_STD,SWP_SG,SV_POS,GY_ROLL,GY_YAW,GY_PITCH,ACC_X,ACC_Y,ACC_Z
a,123398,0.000,0.000,36.000,0.000,-0.044,-0.051,0.041,0.520,2.085,9.446,2.120
a,123403,0.000,0.000,36.000,0.000,-0.044,-0.051,0.026,-0.091,2.101,9.457,2.127
a,123406,0.000,0.000,36.000,0.000,-0.044,-0.112,0.133,0.169,2.078,9.446,2.122
a,123410,0.000,0.000,36.000,0.000,-0.044,0.056,-0.142,-0.030,2.103,9.456,2.122
a,123414,0.000,0.000,36.000,0.000,-0.088,-0.051,0.133,0.138,2.101,9.442,2.115
a,123418,0.000,0.000,36.000,0.000,0.352,-0.112,0.087,0.459,2.082,9.442,2.113
a,123423,0.000,0.000,36.000,0.000,-0.044,-0.127,0.026,-0.793,2.091,9.433,2.115
a,123427,0.000,0.000,36.000,0.000,-0.088,0.010,-0.050,-0.091,2.076,9.471,2.121
a,123431,0.000,0.000,36.000,0.000,-0.088,0.163,0.194,0.321,2.070,9.469,2.145
a,123434,0.000,0.000,36.000,0.000,-0.088,0.041,-0.035,-0.579,2.081,9.471,2.115
a,123438,0.000,0.000,36.000,0.000,-0.044,-0.173,0.148,0.734,2.097,9.410,2.097
a,123442,0.000,0.000,36.000,0.000,-0.044,-0.127,-0.188,-0.473,2.073,9.454,2.119
a,123446,0.000,0.000,36.000,0.000,-0.088,-0.158,-0.050,-0.198,2.078,9.413,2.138
a,123451,0.000,0.000,36.000,0.000,0.000,-0.112,0.194,0.031,2.085,9.468,2.109
a,123455,0.000,0.000,36.000,0.000,-0.044,0.041,-0.188,-0.412,2.076,9.444,2.103
a,123459,0.000,0.000,36.000,0.000,-0.044,-0.081,-0.081,1.512,2.073,9.442,2.128
a,123462,0.000,0.000,36.000,0.000,-0.044,0.041,0.133,-1.114,2.054,9.451,2.113
a,123467,0.000,0.000,36.000,0.000,-0.044,-0.005,-0.065,0.688,2.085,9.428,2.093
a,123470,0.000,0.000,36.000,0.000,-0.088,0.056,0.072,-0.030,2.103,9.433,2.102
a,123474,0.000,0.000,36.000,0.000,-0.088,-0.051,0.026,-0.137,2.096,9.450,2.143
a,123478,0.000,0.000,36.000,0.000,-0.088,0.071,0.057,0.138,2.073,9.442,2.102
a,123482,0.000,0.000,36.000,0.000,-0.088,-0.112,0.133,-0.030,2.094,9.461,2.122
a,123486,0.000,0.000,36.000,0.000,-0.088,0.071,-0.096,0.077,2.058,9.449,2.096
a,123490,0.000,0.000,36.000,0.000,-0.044,0.010,0.057,0.352,2.088,9.427,2.109
a,123494,0.000,0.000,36.000,0.000,-0.176,0.102,-0.417,-0.137,2.076,9.404,2.121
a,123498,0.000,0.000,36.000,0.000,-0.132,-0.020,-0.142,-0.305,2.089,9.456,2.103
a,123502,0.000,0.000,36.000,0.000,-0.088,-0.295,0.133,-0.579,2.057,9.446,2.131
a,123506,0.000,0.000,36.000,0.000,-0.044,-0.020,0.026,-0.793,2.107,9.461,2.150
a,123511,0.000,0.000,36.000,0.000,-0.044,0.194,0.026,-1.373,2.084,9.481,2.103
a,123514,0.000,0.000,36.000,0.000,-0.044,0.071,0.011,0.184,2.076,9.449,2.113
a,123518,0.000,0.000,36.000,0.000,-0.088,0.178,-0.035,0.672,2.094,9.462,2.127
a,123522,0.000,0.000,36.000,0.000,-0.132,0.071,0.118,0.352,2.096,9.444,2.106
a,123526,0.000,0.000,36.000,0.000,-0.088,-0.326,-0.035,0.031,2.101,9.433,2.125
a,123530,0.000,0.000,36.000,0.000,-0.044,-0.112,-0.096,-0.793,2.084,9.443,2.113
a,123534,0.000,0.000,36.000,0.000,-0.088,0.102,-0.081,-0.213,2.107,9.451,2.108
a,123538,0.000,0.000,36.000,0.000,-0.044,-0.112,0.240,0.031,2.094,9.454,2.132
a,123542,0.000,0.000,36.000,0.000,-0.088,-0.112,-0.264,-0.579,2.112,9.455,2.116
a,123546,0.000,0.000,36.000,0.000,-0.088,-0.051,-0.035,-0.091,2.085,9.428,2.113
a,123551,0.000,0.000,36.000,0.000,0.000,0.010,-0.096,0.031,2.101,9.456,2.128
a,123555,0.000,0.000,36.000,0.000,-0.088,0.056,-0.172,0.581,2.073,9.486,2.097
a,123558,0.000,0.000,36.000,0.000,-0.088,-0.051,0.072,-0.091,2.091,9.461,2.109
a,123563,0.000,0.000,36.000,0.000,-0.044,0.087,0.072,-0.488,2.105,9.461,2.128
a,123566,0.000,0.000,36.000,0.000,-0.088,-0.066,-0.081,-0.366,2.103,9.470,2.110
a,123570,0.000,0.000,36.000,0.000,-0.044,-0.112,0.072,-0.137,2.100,9.442,2.116
a,123575,0.000,0.000,36.000,0.000,-0.044,-0.020,0.133,1.405,2.112,9.480,2.108
a,123579,0.000,0.000,36.000,0.000,-0.044,0.056,-0.020,0.581,2.082,9.456,2.087
a,123582,0.000,0.000,36.000,0.000,-0.044,-0.158,0.255,1.237,2.089,9.439,2.113
a,123586,0.000,0.000,36.000,0.000,-0.044,-0.158,-0.264,-0.091,2.088,9.455,2.128
a,123590,0.000,0.000,36.000,0.000,-0.044,-0.051,-0.081,-0.152,2.097,9.457,2.139
a,123594,0.000,0.000,36.000,0.000,-0.044,-0.173,-0.142,-0.045,2.091,9.450,2.126
a,123598,0.000,0.000,36.000,0.000,-0.088,0.056,0.087,0.749,2.105,9.462,2.125
a,123603,0.000,0.000,36.000,0.000,-0.088,-0.112,-0.142,-0.137,2.082,9.436,2.103
a,123606,0.000,0.000,36.000,0.000,-0.088,0.087,0.072,-0.641,2.076,9.462,2.122
a,123611,0.000,0.000,36.000,0.000,-0.044,-0.127,-0.066,-0.202,2.082,9.457,2.125
a,123614,0.000,0.000,36.000,0.000,-0.044,0.056,-0.112,1.004,2.088,9.461,2.103
a,123618,0.000,0.000,36.000,0.000,0.000,-0.127,0.041,-0.844,2.088,9.428,2.115
a,123622,0.000,0.000,36.000,0.000,-0.088,-0.173,-0.081,-0.294,2.085,9.433,2.103
a,123626,0.000,0.000,36.000,0.000,-0.088,0.072,0.072,-0.141,2.091,9.449,2.140
a,123630,0.000,0.000,36.000,0.000,-0.088,0.056,0.209,0.179,2.069,9.470,2.110
a,123634,0.000,0.000,36.000,0.000,-0.088,-0.020,-0.020,-0.309,2.091,9.450,2.101
a,123638,0.000,0.000,36.000,0.000,0.352,0.011,0.102,1.172,2.089,9.446,2.122
a,123642,0.000,0.000,36.000,0.000,-0.044,-0.050,0.056,0.973,2.088,9.465,2.125
a,123646,0.000,0.000,36.000,0.000,-0.088,0.041,-0.066,-0.248,2.081,9.446,2.109
a,123650,0.000,0.000,36.000,0.000,-0.088,-0.020,0.041,-0.416,2.088,9.439,2.119
a,123654,0.000,0.000,36.000,0.000,-0.088,-0.218,-0.310,-1.210,2.094,9.471,2.102
a,123658,0.000,0.000,36.000,0.000,-0.088,-0.005,-0.005,0.851,2.101,9.458,2.103
a,123662,0.000,0.000,36.000,0.000,-0.132,0.087,0.087,-0.599,2.073,9.434,2.113
a,123667,0.000,0.000,36.000,0.000,0.352,0.041,-0.020,-0.523,2.089,9.427,2.121
a,123670,0.000,0.000,36.000,0.000,-0.044,-0.005,0.255,-0.141,2.091,9.450,2.132
a,123674,0.000,0.000,36.000,0.000,-0.088,0.011,0.133,0.454,2.089,9.455,2.113
a,123678,0.000,0.000,36.000,0.000,-0.044,-0.127,0.087,-0.676,2.091,9.448,2.106
a,123682,0.000,0.000,36.000,0.000,0.308,-0.050,0.041,0.073,2.096,9.449,2.126
a,123686,0.000,0.000,36.000,0.000,0.352,0.209,-0.020,0.118,2.085,9.475,2.096
a,123690,0.000,0.000,36.000,0.000,-0.088,-0.005,0.163,0.637,2.078,9.450,2.108
a,123694,0.000,0.000,36.000,0.000,-0.044,0.102,0.072,-0.859,2.097,9.413,2.109
a,123698,0.000,0.000,36.000,0.000,-0.088,0.117,0.087,0.836,2.088,9.455,2.140
a,123703,0.000,0.000,36.000,0.000,-0.088,-0.066,0.056,-1.607,2.094,9.483,2.121
a,123707,0.000,0.000,36.000,0.000,0.352,-0.005,-0.005,0.744,2.065,9.444,2.132
a,123710,0.000,0.000,36.000,0.000,-0.044,-0.127,0.041,-0.569,2.072,9.427,2.112
a,123715,0.000,0.000,36.000,0.000,0.352,0.041,-0.173,-0.355,2.078,9.454,2.103
a,123718,0.000,0.000,36.000,0.000,-0.044,-0.020,0.148,-0.920,2.081,9.457,2.101
a,123722,0.000,0.000,36.000,0.000,-0.044,0.056,-0.173,-0.187,2.070,9.451,2.103
a,123727,0.000,0.000,36.000,0.000,-0.088,0.102,0.117,0.668,2.070,9.458,2.094
a,123731,0.000,0.000,36.000,0.000,-0.044,-0.112,0.087,0.179,2.084,9.443,2.120
a,123735,0.000,0.000,36.000,0.000,-0.044,-0.050,-0.020,-0.080,2.076,9.446,2.109
a,123738,0.000,0.000,36.000,0.000,-0.088,0.087,0.087,-0.309,2.094,9.432,2.113
a,123742,0.000,0.000,36.000,0.000,-0.044,0.072,0.072,0.240,2.097,9.448,2.113
a,123746,0.000,0.000,36.000,0.000,-0.044,-0.005,-0.050,0.531,2.085,9.439,2.106
a,123750,0.000,0.000,36.000,0.000,-0.044,0.087,0.148,-1.195,2.058,9.452,2.109
a,123754,0.000,0.000,36.000,0.000,-0.044,-0.005,0.041,-0.187,2.097,9.462,2.125
a,123759,0.000,0.000,36.000,0.000,-0.132,0.117,-0.188,0.286,2.096,9.424,2.094
a,123763,0.000,0.000,36.000,0.000,-0.044,-0.234,-0.066,-0.691,2.073,9.457,2.125
a,123767,0.000,0.000,36.000,0.000,-0.044,-0.112,0.041,0.393,2.101,9.445,2.116
a,123770,0.000,0.000,36.000,0.000,0.352,0.194,-0.020,-1.134,2.088,9.450,2.125
a,123775,0.000,0.000,36.000,0.000,-0.088,0.102,-0.295,-0.050,2.100,9.458,2.132
a,123778,0.000,0.000,36.000,0.000,-0.088,-0.112,-0.050,0.515,2.088,9.471,2.132
a,123782,0.000,0.000,36.000,0.000,-0.044,0.072,0.087,0.592,2.085,9.461,2.150
a,123786,0.000,0.000,36.000,0.000,-0.088,0.179,-0.035,-0.050,2.091,9.470,2.093
a,123790,0.000,0.000,36.000,0.000,-0.088,0.102,0.041,-0.050,2.082,9.451,2.109
a,123794,0.000,0.000,36.000,0.000,-0.088,0.056,-0.173,0.088,2.081,9.422,2.122
a,123798,0.000,0.000,36.000,0.000,-0.132,-0.218,-0.218,0.515,2.109,9.461,2.116
a,123802,0.000,0.000,36.000,0.000,-0.044,0.011,-0.035,0.408,2.100,9.451,2.112
a,123806,0.000,0.000,36.000,0.000,0.000,-0.112,-0.050,0.744,2.084,9.485,2.112
a,123810,0.000,0.000,36.000,0.000,-0.044,-0.295,0.087,-1.027,2.091,9.463,2.103
a,123814,0.000,0.000,36.000,0.000,-0.044,0.209,-0.112,0.683,2.076,9.430,2.127
a,123819,0.000,0.000,36.000,0.000,-0.088,0.072,-0.188,0.454,2.089,9.465,2.116
a,123822,0.000,0.000,36.000,0.000,-0.088,-0.173,-0.157,0.576,2.084,9.475,2.119
a,123826,0.000,0.000,36.000,0.000,-0.088,-0.050,-0.066,0.302,2.091,9.456,2.125
a,123830,0.000,0.000,36.000,0.000,-0.088,-0.066,0.087,-0.263,2.109,9.450,2.109
a,123834,0.000,0.000,36.000,0.000,-0.044,-0.066,0.316,-0.263,2.082,9.427,2.099
a,123838,0.000,0.000,36.000,0.000,-0.132,0.102,0.072,-0.477,2.070,9.438,2.106
a,123842,0.000,0.000,36.000,0.000,-0.088,0.117,-0.142,0.332,2.097,9.451,2.108
a,123846,0.000,0.000,36.000,0.000,-0.088,-0.005,-0.127,0.195,2.073,9.446,2.103
a,123851,0.000,0.000,36.000,0.000,-0.088,0.056,-0.218,0.698,2.096,9.437,2.100
a,123855,0.000,0.000,36.000,0.000,-0.088,-0.020,-0.157,-1.821,2.089,9.468,2.125
a,123858,0.000,0.000,36.000,0.000,-0.132,-0.005,0.056,0.637,2.072,9.480,2.122
a,123862,0.000,0.000,36.000,0.000,-0.132,-0.173,0.224,0.592,2.085,9.439,2.106
a,123866,0.000,0.000,36.000,0.000,-0.088,0.041,-0.066,-0.248,2.082,9.430,2.103
a,123871,0.000,0.000,36.000,0.000,0.000,-0.050,0.041,-0.034,2.089,9.468,2.112
a,123875,0.000,0.000,36.000,0.000,-0.132,0.163,-0.188,-0.798,2.100,9.473,2.090
a,123879,0.000,0.000,36.000,0.000,0.396,-0.127,-0.173,-0.477,2.073,9.443,2.084
a,123882,0.000,0.000,36.000,0.000,0.000,0.011,-0.035,0.454,2.081,9.444,2.122
a,123886,0.000,0.000,36.000,0.000,-0.044,-0.218,-0.142,-0.462,2.089,9.455,2.112
a,123890,0.000,0.000,36.000,0.000,-0.044,0.011,0.072,0.347,2.081,9.434,2.140
a,123894,0.000,0.000,36.000,0.000,-0.044,-0.050,0.087,0.073,2.088,9.436,2.142
a,123898,0.000,0.000,36.000,0.000,-0.088,0.072,0.072,0.454,2.091,9.431,2.106
a,123903,0.000,0.000,36.000,0.000,-0.088,-0.005,-0.127,-0.080,2.107,9.457,2.100
a,123906,0.000,0.000,36.000,0.000,-0.088,0.102,-0.005,0.729,2.063,9.456,2.125
a,123911,0.000,0.000,36.000,0.000,-0.088,0.011,0.087,0.698,2.088,9.444,2.138
a,123914,0.000,0.000,36.000,0.000,0.352,-0.066,0.041,-0.966,2.078,9.398,2.072
a,123918,0.000,0.000,36.000,0.000,-0.044,-0.005,0.316,0.286,2.103,9.442,2.096
a,123922,0.000,0.000,36.000,0.000,0.000,0.056,0.102,0.897,2.097,9.442,2.116
a,123926,0.000,0.000,36.000,0.000,-0.088,-0.279,0.163,0.515,2.097,9.485,2.107
a,123930,0.000,0.000,36.000,0.000,-0.088,-0.020,-0.020,-0.752,2.089,9.456,2.126
a,123934,0.000,0.000,36.000,0.000,-0.132,0.163,-0.066,0.286,2.065,9.456,2.128
a,123938,0.000,0.000,36.000,0.000,-0.044,-0.050,-0.341,0.210,2.100,9.456,2.134
a,123942,0.000,0.000,36.000,0.000,-0.088,0.072,-0.035,0.195,2.073,9.470,2.106
a,123946,0.000,0.000,36.000,0.000,-0.044,0.011,-0.142,-0.034,2.076,9.436,2.116
a,123950,0.000,0.000,36.000,0.000,-0.044,0.194,0.087,-0.874,2.091,9.445,2.114
a,123954,0.000,0.000,36.000,0.000,-0.044,0.041,-0.020,-0.752,2.078,9.455,2.110
a,123958,0.000,0.000,36.000,0.000,-0.132,0.041,0.209,-0.355,2.091,9.433,2.134
a,123962,0.000,0.000,36.000,0.000,-0.088,-0.020,-0.020,-1.011,2.070,9.448,2.093
a,123967,0.000,0.000,36.000,0.000,-0.044,0.072,-0.188,-2.126,2.081,9.479,2.081
a,123970,0.000,0.000,36.000,0.000,-0.088,0.117,0.041,0.897,2.085,9.474,2.127
a,123974,0.000,0.000,36.000,0.000,-0.088,-0.112,0.148,0.302,2.081,9.439,2.121
a,123978,0.000,0.000,36.000,0.000,-0.088,-0.218,0.133,-0.416,2.094,9.431,2.122
a,123982,0.000,0.000,36.000,0.000,-0.088,0.072,0.041,0.531,2.078,9.442,2.125
a,123986,0.000,0.000,36.000,0.000,-0.088,-0.279,-0.188,-0.355,2.094,9.459,2.127
a,123990,0.000,0.000,36.000,0.000,-0.088,-0.157,0.056,1.462,2.066,9.458,2.122
a,123994,0.000,0.000,36.000,0.000,-0.088,-0.112,-0.066,0.302,2.078,9.427,2.106
a,123998,0.000,0.000,36.000,0.000,-0.044,0.117,-0.020,0.576,2.100,9.487,2.106
a,124003,0.000,0.000,36.000,0.000,-0.044,0.011,0.102,1.981,2.101,9.461,2.101
a,124006,0.000,0.000,36.000,0.000,-0.044,0.255,-0.341,-0.569,2.066,9.465,2.106
a,124010,0.000,0.000,36.000,0.000,-0.088,0.041,0.087,-1.057,2.097,9.456,2.122
a,124014,0.000,0.000,36.000,0.000,-0.044,-0.218,0.347,-0.416,2.097,9.451,2.127
a,124018,0.000,0.000,36.000,0.000,0.352,0.163,-0.020,-0.095,2.069,9.444,2.122
a,124023,0.000,0.000,36.000,0.000,0.396,0.148,0.087,-0.370,2.070,9.499,2.112
a,124027,0.000,0.000,36.000,0.000,0.352,0.072,0.270,1.569,2.096,9.442,2.119
a,124031,0.000,0.000,36.000,0.000,0.352,-0.020,-0.295,-0.920,2.082,9.452,2.126
a,124035,0.000,0.000,36.000,0.000,0.352,0.041,0.041,-1.011,2.085,9.461,2.127
a,124039,0.000,0.000,36.000,0.000,0.352,0.163,0.041,0.439,2.088,9.461,2.121
a,124042,0.000,0.075,36.000,0.075,-0.044,0.056,0.133,-0.462,2.109,9.464,2.115
a,124046,0.000,0.151,36.000,0.151,-0.044,-0.127,-0.066,-0.950,2.069,9.462,2.119
a,124050,0.000,0.226,36.000,0.226,0.000,0.011,-0.142,0.134,2.094,9.445,2.102
a,124055,0.000,0.302,36.000,0.302,-0.044,-0.112,-0.050,0.912,2.113,9.443,2.093
a,124058,0.000,0.377,36.000,0.377,-0.044,0.056,0.087,0.088,2.063,9.436,2.125
a,124063,0.000,0.453,36.000,0.453,-0.044,0.163,0.041,0.393,2.094,9.471,2.097
a,124066,0.000,0.529,36.000,0.529,-0.044,-0.310,-0.142,0.088,2.081,9.477,2.103
a,124070,0.000,0.604,36.000,0.604,-0.044,0.026,0.209,1.126,2.078,9.455,2.122
a,124074,0.000,0.680,36.000,0.680,0.352,0.117,-0.066,1.065,2.100,9.459,2.113
a,124078,0.000,0.755,36.000,0.755,-0.088,0.102,-0.173,0.439,2.101,9.470,2.115
a,124083,0.000,0.831,36.000,0.831,0.000,-0.096,0.072,0.134,2.078,9.485,2.137
a,124086,0.000,0.907,36.000,0.907,-0.044,0.041,-0.020,-0.263,2.082,9.442,2.103
a,124090,0.000,0.982,36.000,0.982,0.352,-0.264,0.255,0.637,2.089,9.437,2.100
a,124094,0.000,1.058,36.000,1.058,0.703,0.072,0.087,1.080,2.081,9.433,2.137
a,124098,0.000,1.134,36.000,1.134,-0.044,0.285,-0.142,0.393,2.073,9.513,2.143
a,124102,0.000,1.209,36.000,1.209,0.352,0.362,0.362,-0.309,2.065,9.421,2.131
a,124106,0.000,1.285,36.000,1.285,-0.044,-0.173,-0.066,0.118,2.125,9.531,2.116
a,124110,0.000,1.360,36.000,1.360,-0.044,-0.005,-0.066,0.179,2.073,9.467,2.099
a,124115,0.000,1.436,36.000,1.436,0.396,0.087,0.041,-0.477,2.069,9.470,2.112
a,124118,0.000,1.512,36.000,1.512,0.527,-0.279,0.087,0.011,2.148,9.513,2.103
a,124122,0.000,1.587,36.000,1.587,0.527,-0.066,-0.020,-0.294,2.084,9.522,2.119
a,124127,0.000,1.662,36.000,1.662,0.615,-0.005,0.148,0.302,2.100,9.482,2.143
a,124130,0.000,1.738,36.000,1.738,0.659,-0.050,-0.066,0.027,2.107,9.468,2.081
a,124134,0.000,1.813,36.000,1.813,0.703,-0.050,-0.081,-1.332,2.084,9.443,2.108
a,124138,0.000,1.888,36.000,1.888,0.703,0.194,0.087,-1.408,2.128,9.470,2.127
a,124142,0.000,1.964,36.000,1.964,1.055,-0.050,-0.020,0.225,2.107,9.485,2.096
a,124146,0.000,2.039,36.000,2.039,1.230,0.041,0.209,-0.309,2.058,9.469,2.109
a,124151,0.000,2.114,36.000,2.114,1.318,-0.005,0.270,0.836,2.089,9.455,2.126
a,124155,0.000,2.189,36.000,2.189,1.274,-0.035,-0.341,0.653,2.143,9.499,2.084
a,124158,0.000,2.264,36.000,2.264,1.362,-0.112,0.209,-0.034,2.049,9.515,2.148
a,124162,0.000,2.339,36.000,2.339,1.758,-0.005,0.102,0.622,2.097,9.445,2.113
a,124166,0.000,2.413,36.000,2.413,1.714,-0.050,-0.295,0.347,2.163,9.428,2.119
a,124170,0.000,2.488,36.000,2.488,1.758,-0.112,0.041,0.027,2.051,9.439,2.127
a,124175,0.000,2.562,36.000,2.562,1.318,0.056,0.102,1.080,2.047,9.432,2.106
a,124179,0.000,2.637,36.000,2.637,1.362,-0.188,-0.127,-0.355,2.138,9.430,2.115
a,124183,0.000,2.711,36.000,2.711,1.758,-0.279,-0.112,1.019,2.066,9.473,2.103
a,124187,0.000,2.785,36.000,2.785,1.758,-0.005,0.423,-0.156,2.063,9.493,2.113
a,124190,0.000,2.860,36.000,2.860,1.846,-0.005,0.087,0.408,2.148,9.407,2.103
a,124194,0.000,2.933,36.000,2.933,1.890,0.163,0.148,-0.095,2.070,9.450,2.115
a,124198,0.000,3.007,36.000,3.007,1.890,0.316,0.041,-0.477,2.089,9.499,2.144
a,124203,0.000,3.081,36.000,3.081,2.021,0.056,0.041,0.454,2.089,9.471,2.087
a,124206,0.000,3.155,36.000,3.155,2.417,-0.066,-0.020,-0.645,2.057,9.470,2.127
a,124211,0.000,3.228,36.000,3.228,2.461,0.163,-0.020,0.073,2.091,9.461,2.097
a,124215,0.000,3.301,36.000,3.301,2.461,0.179,-0.157,1.263,2.089,9.442,2.157
a,124218,0.000,3.375,36.000,3.375,2.461,0.148,-0.295,-0.859,2.063,9.462,2.102
a,124222,0.000,3.448,36.000,3.448,2.417,-0.081,0.072,-1.729,2.084,9.470,2.138
a,124226,0.000,3.520,36.000,3.520,2.461,0.056,0.056,0.531,2.089,9.482,2.090
a,124230,0.000,3.593,36.000,3.593,2.065,0.056,-0.234,0.347,2.091,9.461,2.128
a,124234,0.000,3.665,36.000,3.665,2.461,0.056,0.255,-0.034,2.066,9.450,2.102
a,124238,0.000,3.738,36.000,3.738,2.549,0.041,-0.020,-0.676,2.063,9.473,2.128
a,124242,0.000,3.810,36.000,3.810,2.505,0.209,-0.234,0.103,2.103,9.427,2.116
a,124246,0.000,3.882,36.000,3.882,2.593,0.194,-0.127,-0.431,2.101,9.470,2.109
a,124250,0.000,3.954,36.000,3.954,2.812,-0.020,0.087,-1.027,2.094,9.527,2.154
a,124254,0.000,4.025,36.000,4.025,3.120,0.179,0.163,1.324,2.070,9.510,2.132
a,124258,0.000,4.097,36.000,4.097,3.208,-0.203,-0.081,0.302,2.158,9.470,2.119
a,124262,0.000,4.168,36.000,4.168,3.296,-0.112,-0.127,-0.187,2.073,9.485,2.082
a,124267,0.000,4.239,36.000,4.239,3.340,0.163,-0.035,-1.179,2.042,9.430,2.132
a,124270,0.000,4.309,36.000,4.309,3.296,0.011,0.041,0.698,2.128,9.474,2.096
a,124274,0.000,4.380,36.000,4.380,3.252,0.072,0.026,0.088,2.073,9.431,2.087
a,124278,0.000,4.450,36.000,4.450,3.296,0.331,0.240,-0.431,2.023,9.455,2.150
a,124282,0.000,4.520,36.000,4.520,3.296,-0.050,0.148,0.302,2.103,9.482,2.113
a,124286,0.000,4.590,36.000,4.590,3.296,-0.050,-0.020,-0.050,2.125,9.467,2.110
a,124290,0.000,4.660,36.000,4.660,3.340,-0.112,0.148,0.179,2.041,9.427,2.132
a,124294,0.000,4.729,36.000,4.729,3.296,-0.020,-0.066,-0.676,2.127,9.457,2.084
a,124298,0.000,4.798,36.000,4.798,3.340,0.056,-0.127,0.454,2.103,9.489,2.116
a,124303,0.000,4.867,36.000,4.867,3.164,0.224,0.072,0.179,2.023,9.455,2.148
a,124306,0.000,4.936,36.000,4.936,3.296,0.102,0.148,0.179,2.101,9.470,2.125
a,124310,0.000,5.004,36.000,5.004,3.384,-0.157,0.056,1.324,2.116,9.420,2.120
a,124314,0.000,5.072,36.000,5.072,3.428,0.011,-0.035,-0.141,2.002,9.369,2.112
a,124318,0.000,5.140,36.000,5.140,3.472,0.102,0.255,0.439,2.085,9.476,2.125
a,124322,0.000,5.208,36.000,5.208,3.516,-0.066,-0.127,-0.798,2.144,9.477,2.081
a,124327,0.000,5.275,36.000,5.275,4.570,-0.005,-0.234,0.011,2.088,9.424,2.148
a,124331,0.000,5.342,36.000,5.342,3.867,-0.127,-0.127,-0.294,2.084,9.479,2.094
a,124335,0.000,5.408,36.000,5.408,4.043,0.056,-0.066,0.088,2.089,9.534,2.137
a,124338,0.000,5.475,36.000,5.475,4.043,0.102,0.026,-0.309,2.088,9.463,2.119
a,124342,0.000,5.541,36.000,5.541,4.175,0.163,-0.066,0.103,2.084,9.474,2.122
a,124346,0.000,5.607,36.000,5.607,4.570,-0.020,0.209,-0.416,2.060,9.485,2.137
a,124350,0.000,5.672,36.000,5.672,4.570,-0.112,-0.188,-0.416,2.084,9.437,2.163
a,124355,0.000,5.737,36.000,5.737,4.614,-0.112,-0.066,0.118,2.115,9.436,2.075
a,124358,0.000,5.802,36.000,5.802,4.570,0.011,0.041,0.531,2.097,9.415,2.106
a,124363,0.000,5.867,36.000,5.867,4.570,-0.020,-0.066,-0.782,2.082,9.465,2.103
a,124367,0.000,5.931,36.000,5.931,4.614,-0.096,0.072,0.240,2.094,9.499,2.115
a,124370,0.000,5.995,36.000,5.995,4.570,0.072,-0.035,-0.034,2.084,9.533,2.121
a,124374,0.000,6.058,36.000,6.058,4.614,0.194,-0.066,-0.584,2.097,9.458,2.127
a,124378,0.000,6.121,36.000,6.121,4.702,0.163,0.209,-0.202,2.065,9.428,2.097
a,124382,0.000,6.184,36.000,6.184,5.361,-0.157,-0.249,0.134,2.120,9.483,2.106
a,124386,0.000,6.247,36.000,6.247,5.405,0.041,-0.341,-0.630,2.105,9.481,2.081
a,124390,0.000,6.309,36.000,6.309,5.581,0.148,0.087,-0.309,2.070,9.450,2.121
a,124394,0.000,6.371,36.000,6.371,5.977,-0.112,-0.173,0.088,2.148,9.461,2.102
a,124398,0.000,6.432,36.000,6.432,5.977,-0.112,-0.005,0.851,2.132,9.461,2.134
a,124402,0.000,6.493,36.000,6.493,6.021,0.102,0.041,-0.065,2.063,9.442,2.130
a,124406,0.000,6.554,36.000,6.554,6.064,0.072,-0.142,0.195,2.120,9.475,2.116
a,124410,0.000,6.614,36.000,6.614,5.977,-0.005,-0.050,0.515,2.081,9.445,2.072
a,124415,0.000,6.674,36.000,6.674,6.021,-0.050,0.056,0.637,2.047,9.451,2.150
a,124419,0.000,6.733,36.000,6.733,6.021,-0.005,0.224,0.531,2.085,9.444,2.122
a,124422,0.000,6.792,36.000,6.792,6.021,-0.066,-0.020,-0.737,2.091,9.456,2.116
a,124426,0.000,6.851,36.000,6.851,5.977,-0.020,0.041,-0.782,2.076,9.465,2.137
a,124430,0.000,6.909,36.000,6.909,6.021,0.056,0.087,-0.080,2.085,9.443,2.097
a,124434,0.000,6.967,36.000,6.967,5.977,-0.020,-0.341,-0.447,2.125,9.443,2.116
a,124438,0.000,7.025,36.000,7.025,6.064,-0.005,-0.112,0.805,2.063,9.444,2.115
a,124442,0.000,7.082,36.000,7.082,6.064,0.163,0.163,0.683,2.047,9.425,2.138
a,124446,0.000,7.138,36.000,7.138,6.021,0.041,0.087,-0.630,2.116,9.439,2.128
a,124451,0.000,7.195,36.000,7.195,6.064,-0.020,0.087,-1.057,2.085,9.410,2.100
a,124454,0.000,7.250,36.000,7.250,6.021,-0.112,0.087,-0.080,2.076,9.464,2.090
a,124458,0.000,7.306,36.000,7.306,6.021,0.102,0.026,-0.477,2.091,9.459,2.097
a,124463,0.000,7.361,36.000,7.361,6.064,0.072,-0.249,-1.683,2.088,9.470,2.113
a,124466,0.000,7.415,36.000,7.415,5.977,0.072,-0.234,0.637,2.047,9.462,2.121
a,124470,0.000,7.469,36.000,7.469,6.021,-0.050,0.148,-0.050,2.081,9.461,2.114
a,124475,0.000,7.523,36.000,7.523,6.021,-0.050,-0.066,0.088,2.085,9.500,2.106
a,124479,0.000,7.576,36.000,7.576,6.021,0.056,-0.127,0.134,2.091,9.421,2.121
a,124483,0.000,7.628,36.000,7.628,6.021,0.087,-0.127,1.340,2.101,9.456,2.128
a,124486,0.000,7.680,36.000,7.680,5.977,-0.142,0.026,-1.622,2.127,9.452,2.116
a,124490,0.000,7.732,36.000,7.732,6.021,-0.173,0.056,1.019,2.096,9.462,2.113
a,124494,0.000,7.783,36.000,7.783,5.977,0.087,0.209,1.462,2.082,9.523,2.113
a,124498,0.000,7.834,36.000,7.834,6.021,0.102,0.209,-0.156,2.113,9.471,2.137
a,124502,0.000,7.884,36.000,7.884,6.899,-0.050,-0.112,0.622,2.105,9.503,2.130
a,124507,0.000,7.934,36.000,7.934,6.196,0.087,0.148,-0.218,2.011,9.477,2.114
a,124511,0.000,7.983,36.000,7.983,6.284,0.194,0.148,-0.706,2.100,9.463,2.094
a,124515,0.000,8.032,36.000,8.032,6.064,-0.050,-0.173,0.134,2.152,9.462,2.128
a,124519,0.000,8.080,36.000,8.080,6.284,-0.020,-0.020,-0.309,2.039,9.406,2.143
a,124523,0.000,8.128,36.000,8.128,6.284,0.087,0.209,-0.920,2.094,9.479,2.121
a,124526,0.000,8.175,36.000,8.175,6.680,-0.264,0.056,1.844,2.144,9.451,2.125
a,124530,0.000,8.222,36.000,8.222,6.680,-0.005,-0.295,0.439,2.063,9.455,2.099
a,124534,0.000,8.268,36.000,8.268,6.855,0.163,0.041,0.286,2.065,9.414,2.163
a,124538,0.000,8.314,36.000,8.314,6.724,0.056,-0.066,0.302,2.120,9.470,2.073
a,124542,0.000,8.359,36.000,8.359,6.768,0.041,-0.295,-0.523,2.131,9.454,2.138
a,124546,0.000,8.404,36.000,8.404,6.812,0.072,-0.188,0.240,2.076,9.501,2.113
a,124550,0.000,8.448,36.000,8.448,6.987,-0.218,0.102,0.790,2.112,9.521,2.113
a,124554,0.000,8.492,36.000,8.492,7.603,-0.386,-0.005,0.958,2.127,9.510,2.091
a,124558,0.000,8.535,36.000,8.535,7.690,-0.005,-0.142,-0.462,2.069,9.517,2.119
a,124563,0.000,8.577,36.000,8.577,7.646,0.056,0.072,-0.355,2.116,9.444,2.096
a,124567,0.000,8.619,36.000,8.619,7.690,0.163,-0.279,0.958,2.094,9.480,2.108
a,124570,0.000,8.660,36.000,8.660,7.690,-0.173,0.041,0.027,2.049,9.428,2.154
a,124574,0.000,8.701,36.000,8.701,7.646,0.056,-0.005,0.912,2.096,9.414,2.079
a,124578,0.000,8.742,36.000,8.742,7.734,-0.112,0.026,-1.225,2.105,9.401,2.144
a,124582,0.000,8.781,36.000,8.781,7.690,0.163,0.041,0.057,2.069,9.434,2.116
a,124586,0.000,8.820,36.000,8.820,8.042,-0.066,-0.127,-0.263,2.073,9.456,2.130
a,124590,0.000,8.859,36.000,8.859,7.646,-0.050,-0.157,0.698,2.105,9.444,2.115
a,124594,0.000,8.897,36.000,8.897,7.646,0.117,-0.050,1.309,2.082,9.450,2.114
a,124598,0.000,8.934,36.000,8.934,7.646,-0.050,0.072,-0.294,2.076,9.437,2.093
a,124603,0.000,8.971,36.000,8.971,7.998,0.102,-0.020,-0.202,2.082,9.428,2.093
a,124607,0.000,9.007,36.000,9.007,7.690,0.087,0.209,-0.966,2.065,9.464,2.125
a,124610,0.000,9.043,36.000,9.043,7.690,0.056,0.102,0.515,2.084,9.449,2.099
a,124614,0.000,9.078,36.000,9.078,7.734,-0.188,0.087,-0.523,2.089,9.468,2.116
a,124618,0.000,9.112,36.000,9.112,7.690,0.270,0.041,-0.004,2.091,9.421,2.116
a,124622,0.000,9.146,36.000,9.146,7.998,0.224,-0.020,0.683,2.089,9.427,2.122
a,124627,0.000,9.179,36.000,9.179,8.042,-0.020,0.316,-0.630,2.105,9.464,2.131
a,124631,0.000,9.212,36.000,9.212,8.042,0.209,0.163,0.622,2.101,9.439,2.106
a,124635,0.000,9.244,36.000,9.244,7.690,-0.020,-0.066,-0.676,2.073,9.462,2.127
a,124638,0.000,9.275,36.000,9.275,7.690,0.056,-0.066,0.439,2.088,9.467,2.110
a,124642,0.000,9.306,36.000,9.306,7.603,-0.096,-0.050,1.279,2.089,9.471,2.085
a,124646,0.000,9.336,36.000,9.336,7.603,0.163,-0.066,0.179,2.085,9.464,2.102
a,124651,0.000,9.366,36.000,9.366,7.734,-0.112,0.087,0.408,2.078,9.505,2.121
a,124655,0.000,9.395,36.000,9.395,7.690,0.163,-0.173,0.286,2.097,9.476,2.148
a,124658,0.000,9.423,36.000,9.423,7.734,-0.050,0.041,0.027,2.127,9.450,2.102
a,124663,0.000,9.450,36.000,9.450,8.086,-0.066,-0.127,-0.294,2.042,9.414,2.093
a,124668,0.000,9.477,36.000,9.477,8.130,0.148,0.362,-0.492,2.082,9.402,2.168
a,124670,0.000,9.504,36.000,9.504,8.965,0.056,-0.112,0.851,2.112,9.499,2.065
a,124674,0.000,9.529,36.000,9.529,8.086,-0.218,0.087,-0.187,2.010,9.516,2.169
a,124678,0.000,9.554,36.000,9.554,8.174,-0.066,-0.234,-0.416,2.073,9.487,2.064
a,124683,0.000,9.579,36.000,9.579,8.042,-0.020,0.041,-0.645,2.096,9.498,2.148
a,124686,0.000,9.603,36.000,9.603,8.086,-0.631,-0.035,-2.752,1.675,9.354,1.912
a,124692,0.000,9.626,36.000,9.626,8.130,0.285,0.194,-0.202,2.041,9.275,2.102
a,124694,0.000,9.648,36.000,9.648,6.680,-0.570,-0.799,-2.416,1.815,9.558,1.948
a,124698,0.000,9.670,36.000,9.670,8.130,0.117,0.148,0.729,2.105,9.571,2.715
a,124702,0.000,9.691,36.000,9.691,8.042,0.438,-0.295,0.378,2.187,9.483,1.876
a,124706,0.000,9.711,36.000,9.711,8.086,1.354,-0.127,-0.324,2.053,8.984,2.306
a,124711,0.000,9.731,36.000,9.731,11.118,-1.363,0.942,-0.523,1.852,9.887,1.500
a,124715,0.000,9.750,36.000,9.750,8.086,1.095,0.469,0.378,2.415,9.499,2.588
a,124719,0.000,9.768,36.000,9.768,8.130,0.087,-0.371,-2.263,2.175,9.075,1.894
a,124722,0.000,9.786,36.000,9.786,8.218,0.377,-0.218,0.897,1.985,9.461,2.409
a,124726,0.000,9.803,36.000,9.803,8.218,-0.050,0.056,0.576,2.103,9.521,2.422
a,124730,0.000,9.819,36.000,9.819,8.350,0.591,-0.234,0.179,2.137,9.475,1.816
a,124734,0.000,9.835,36.000,9.835,8.306,-0.264,-0.905,-0.065,1.961,9.468,2.008
a,124738,0.000,9.850,36.000,9.850,8.394,-0.035,0.224,2.271,2.073,9.516,2.172
a,124742,0.000,9.864,36.000,9.864,8.350,-0.295,-0.508,-0.905,2.160,9.621,2.188
a,124746,0.000,9.878,36.000,9.878,8.394,-0.005,0.087,0.454,2.066,9.522,2.354
a,124751,0.000,9.890,36.000,9.890,8.394,0.087,0.087,-1.088,2.047,9.498,1.993
a,124755,0.000,9.903,36.000,9.903,8.394,0.331,-0.173,0.317,2.172,9.410,2.143
a,124758,0.000,9.914,36.000,9.914,8.745,-0.173,-0.005,0.805,2.045,9.548,2.035
a,124762,0.000,9.925,36.000,9.925,8.350,0.041,0.148,-0.263,2.065,9.395,2.180
a,124766,0.000,9.935,36.000,9.935,8.745,0.056,0.224,0.729,2.109,9.498,2.116
a,124770,0.000,9.944,36.000,9.944,8.350,-0.050,-0.066,0.240,2.081,9.442,2.082
a,124774,0.000,9.953,36.000,9.953,8.394,-0.050,0.255,0.195,2.112,9.443,2.154
a,124779,0.000,9.961,36.000,9.961,8.745,0.148,0.255,-0.447,2.065,9.445,2.085
a,124783,0.000,9.968,36.000,9.968,8.350,-0.112,-0.066,0.088,2.112,9.454,2.128
a,124786,0.000,9.974,36.000,9.974,8.350,-0.005,-0.005,0.637,2.085,9.430,2.106
a,124790,0.000,9.980,36.000,9.980,8.350,0.087,-0.020,-0.538,2.070,9.430,2.112
a,124794,0.000,9.985,36.000,9.985,8.350,-0.112,-0.127,0.134,2.094,9.442,2.121
a,124798,0.000,9.989,36.000,9.989,8.394,-0.050,-0.066,0.454,2.070,9.461,2.093
a,124803,0.000,9.993,36.000,9.993,8.350,-0.005,0.148,0.393,2.081,9.481,2.142
a,124807,0.000,9.996,36.000,9.996,8.438,0.163,-0.142,-0.752,2.116,9.458,2.112
a,124810,0.000,9.998,36.000,9.998,8.394,-0.112,0.056,0.729,2.069,9.481,2.113
a,124815,0.000,9.999,36.000,9.999,8.350,-0.035,0.224,1.126,2.078,9.461,2.140
a,124819,0.000,10.000,36.000,10.000,8.350,0.117,-0.035,0.073,2.070,9.446,2.093
a,124822,0.000,10.000,36.000,10.000,8.306,0.041,0.041,-0.462,2.101,9.451,2.137
a,124826,0.000,9.999,36.000,9.999,8.350,-0.066,0.209,-1.118,2.070,9.422,2.088
a,124830,0.000,9.998,36.000,9.998,8.350,-0.173,0.102,0.531,2.073,9.443,2.137
a,124834,0.000,9.995,36.000,9.995,8.394,-0.066,-0.066,-0.691,2.105,9.467,2.107
a,124838,0.000,9.992,36.000,9.992,8.394,0.056,0.087,-0.050,2.066,9.442,2.119
a,124842,0.000,9.988,36.000,9.988,8.306,-0.050,-0.050,0.515,2.072,9.446,2.122
a,124846,0.000,9.984,36.000,9.984,8.306,-0.050,-0.066,0.286,2.085,9.485,2.096
a,124850,0.000,9.979,36.000,9.979,8.394,-0.112,0.041,0.073,2.081,9.425,2.116
a,124854,0.000,9.973,36.000,9.973,8.350,0.163,0.270,1.004,2.082,9.439,2.132
a,124858,0.000,9.966,36.000,9.966,8.394,0.102,-0.127,0.073,2.094,9.439,2.119
a,124862,0.000,9.959,36.000,9.959,8.350,-0.218,-0.035,-0.462,2.076,9.419,2.100
a,124867,0.000,9.950,36.000,9.950,8.789,0.041,0.087,-0.309,2.070,9.431,2.119
a,124870,0.000,9.941,36.000,9.941,8.394,-0.005,-0.005,0.515,2.078,9.431,2.107
a,124874,0.000,9.932,36.000,9.932,8.350,-0.050,-0.127,-0.080,2.073,9.433,2.115
a,124878,0.000,9.921,36.000,9.921,8.350,0.056,0.224,0.851,2.081,9.465,2.116
a,124882,0.000,9.910,36.000,9.910,8.394,0.056,-0.127,0.027,2.051,9.475,2.132
a,124886,0.000,9.898,36.000,9.898,8.350,0.056,-0.066,-0.050,2.070,9.459,2.126
a,124890,0.000,9.885,36.000,9.885,8.350,0.163,0.224,0.500,2.088,9.455,2.101
a,124894,0.000,9.872,36.000,9.872,8.350,0.041,-0.020,-0.538,2.066,9.452,2.105
a,124899,0.000,9.858,36.000,9.858,8.438,-0.050,0.209,0.302,2.097,9.451,2.131
a,124903,0.000,9.843,36.000,9.843,8.745,-0.005,-0.005,0.393,2.083,9.445,2.114
a,124906,0.000,9.827,36.000,9.827,8.394,-0.310,0.148,0.912,2.091,9.433,2.100
a,124910,0.000,9.811,36.000,9.811,8.394,0.056,-0.081,-0.462,2.091,9.438,2.116
a,124914,0.000,9.793,36.000,9.793,8.350,0.179,-0.112,-0.492,2.091,9.470,2.116
a,124918,0.000,9.775,36.000,9.775,8.350,0.072,-0.035,0.134,2.082,9.440,2.113
a,124922,0.000,9.757,36.000,9.757,8.394,-0.050,-0.127,0.347,2.082,9.457,2.122
a,124927,0.000,9.737,36.000,9.737,8.350,-0.050,0.041,0.454,2.100,9.458,2.102
a,124931,0.000,9.717,36.000,9.717,8.350,-0.188,-0.173,-0.477,2.105,9.427,2.119
a,124934,0.000,9.696,36.000,9.696,8.394,0.224,0.133,0.393,2.084,9.455,2.119
a,124938,0.000,9.674,36.000,9.674,8.350,0.056,0.087,0.393,2.078,9.449,2.101
a,124942,0.000,9.652,36.000,9.652,8.306,-0.066,-0.127,-0.263,2.073,9.432,2.119
a,124946,0.000,9.629,36.000,9.629,8.350,0.041,-0.173,-0.523,2.097,9.454,2.112
a,124950,0.000,9.605,36.000,9.605,8.350,0.011,-0.050,1.492,2.078,9.436,2.105
a,124955,0.000,9.580,36.000,9.580,8.394,0.163,-0.005,0.775,2.096,9.450,2.101
a,124959,0.000,9.555,36.000,9.555,8.350,0.163,-0.035,-0.752,2.089,9.446,2.122
a,124963,0.000,9.528,36.000,9.528,8.394,0.041,-0.127,-0.584,2.065,9.467,2.109
a,124966,0.000,9.501,36.000,9.501,8.350,0.041,-0.020,-0.920,2.089,9.467,2.120
a,124971,0.000,9.474,36.000,9.474,8.394,-0.050,-0.218,0.744,2.084,9.470,2.108
a,124974,0.000,9.445,36.000,9.445,8.394,-0.020,-0.066,-0.355,2.082,9.428,2.128
a,124978,0.000,9.416,36.000,9.416,8.394,-0.188,-0.066,-0.263,2.097,9.461,2.113
a,124982,0.000,9.386,36.000,9.386,8.306,0.209,0.072,0.668,2.079,9.462,2.103
a,124986,0.000,9.355,36.000,9.355,8.350,0.209,-0.188,-0.263,2.082,9.432,2.106
a,124990,0.000,9.324,36.000,9.324,8.306,-0.066,-0.127,-0.462,2.081,9.464,2.125
a,124994,0.000,9.292,36.000,9.292,8.350,-0.173,0.026,-0.676,2.101,9.482,2.084
a,124998,0.000,9.259,36.000,9.259,8.350,0.056,-0.020,0.225,2.085,9.471,2.120
a,125002,0.000,9.225,36.000,9.225,8.306,0.163,0.056,0.622,2.078,9.454,2.121
a,125006,0.000,9.191,36.000,9.191,8.350,-0.020,-0.066,-0.477,2.101,9.464,2.114
a,125010,0.000,9.155,36.000,9.155,8.306,0.041,0.041,-0.355,2.101,9.479,2.121
a,125015,0.000,9.120,36.000,9.120,8.306,-0.096,-0.081,0.347,2.085,9.468,2.115
a,125018,0.000,9.083,36.000,9.083,8.350,-0.112,-0.066,-0.095,2.073,9.442,2.099
a,125022,0.000,9.046,36.000,9.046,8.306,0.102,-0.066,0.225,2.084,9.450,2.143
a,125026,0.000,9.007,36.000,9.007,8.394,0.056,0.163,0.836,2.072,9.469,2.110
a,125030,0.000,8.969,36.000,8.969,8.350,0.316,0.041,-0.584,2.089,9.454,2.128
a,125034,0.000,8.929,36.000,8.929,8.394,-0.050,-0.050,0.790,2.097,9.463,2.127
a,125038,0.000,8.889,36.000,8.889,8.350,-0.234,0.041,-1.286,2.094,9.456,2.116
a,125042,0.000,8.848,36.000,8.848,8.350,0.056,0.041,0.073,2.073,9.439,2.136
a,125047,0.000,8.806,36.000,8.806,8.394,-0.173,0.056,0.531,2.078,9.465,2.125
a,125051,0.000,8.764,36.000,8.764,8.394,-0.188,0.087,-0.844,2.063,9.422,2.115
a,125054,0.000,8.720,36.000,8.720,8.350,0.056,0.148,-0.050,2.076,9.485,2.142
a,125058,0.000,8.677,36.000,8.677,8.394,-0.035,0.163,1.569,2.085,9.465,2.132
a,125062,0.000,8.632,36.000,8.632,8.350,-0.005,0.072,-0.737,2.078,9.451,2.103
a,125066,0.000,8.587,36.000,8.587,8.350,0.041,0.148,-0.248,2.085,9.450,2.106
a,125071,0.000,8.541,36.000,8.541,8.350,-0.112,-0.157,0.729,2.085,9.443,2.113
a,125075,0.000,8.494,36.000,8.494,8.350,-0.112,-0.127,0.240,2.078,9.444,2.116
a,125078,0.000,8.446,36.000,8.446,8.350,-0.173,0.148,-0.080,2.082,9.475,2.113
a,125082,0.000,8.398,36.000,8.398,8.350,-0.005,-0.020,-0.050,2.057,9.461,2.119
a,125087,0.000,8.349,36.000,8.349,8.745,-0.035,0.056,1.599,2.105,9.413,2.107
a,125090,0.000,8.300,36.000,8.300,8.350,0.117,0.041,0.515,2.100,9.448,2.144
a,125094,0.000,8.249,36.000,8.249,8.306,0.011,-0.035,-0.034,2.081,9.433,2.103
a,125098,0.000,8.199,36.000,8.199,8.350,0.102,0.224,0.714,2.091,9.434,2.120
a,125103,0.000,8.147,36.000,8.147,8.306,-0.127,-0.402,-1.332,2.076,9.443,2.122
a,125106,0.000,8.095,36.000,8.095,8.394,-0.005,0.011,0.958,2.073,9.440,2.122
a,125110,0.000,8.042,36.000,8.042,8.745,0.056,0.087,0.088,2.085,9.439,2.121
a,125115,0.000,7.988,36.000,7.988,8.350,-0.050,0.163,0.805,2.084,9.443,2.096
a,125118,0.000,7.933,36.000,7.933,8.394,0.148,-0.127,-0.706,2.091,9.442,2.099
a,125122,0.000,7.878,36.000,7.878,8.350,0.087,-0.020,-1.302,2.069,9.428,2.115
a,125126,0.000,7.823,36.000,7.823,8.394,-0.112,0.209,0.347,2.116,9.442,2.103
a,125130,0.000,7.766,36.000,7.766,8.350,0.056,0.087,-0.141,2.085,9.475,2.134
a,125134,0.000,7.709,36.000,7.709,8.350,-0.188,-0.173,-0.477,2.103,9.464,2.126
a,125138,0.000,7.651,36.000,7.651,8.350,-0.112,0.148,0.011,2.089,9.503,2.116
a,125142,0.000,7.593,36.000,7.593,8.394,-0.234,-0.020,-0.294,2.081,9.331,2.122
a,125146,0.000,7.534,36.000,7.534,8.394,0.087,-0.127,-1.347,2.066,9.369,2.125
a,125150,0.000,7.474,36.000,7.474,8.174,-0.005,-0.341,0.302,2.113,9.457,2.084
a,125154,0.000,7.414,36.000,7.414,9.536,0.072,0.102,1.324,2.057,9.449,2.148
a,125158,0.000,7.353,36.000,7.353,8.350,-0.020,-0.066,-0.309,2.054,9.463,2.105
a,125162,0.000,7.291,36.000,7.291,8.745,0.102,-0.295,-0.172,2.150,9.416,2.076
a,125167,0.000,7.229,36.000,7.229,8.350,-0.188,0.041,-0.477,2.057,9.413,2.133
a,125170,0.000,7.166,36.000,7.166,8.306,-0.020,-0.066,-1.408,2.072,9.428,2.127
a,125174,0.000,7.103,36.000,7.103,8.965,0.179,0.270,1.859,2.100,9.446,2.114
a,125178,0.000,7.038,36.000,7.038,8.130,0.163,-0.081,-0.752,2.101,9.442,2.122
a,125182,0.000,6.974,36.000,6.974,8.218,-0.066,0.255,-0.523,2.054,9.401,2.143
a,125187,0.000,6.908,36.000,6.908,8.086,0.148,-0.066,-0.767,2.078,9.459,2.081
a,125190,0.000,6.842,36.000,6.842,8.042,0.163,0.087,-0.172,2.107,9.425,2.178
a,125194,0.000,6.776,36.000,6.776,7.603,-0.157,-0.005,1.172,2.089,9.414,2.096
a,125198,0.000,6.708,36.000,6.708,7.690,0.117,-0.005,1.218,2.109,9.439,2.138
a,125203,0.000,6.640,36.000,6.640,7.603,0.026,-0.310,-1.729,2.078,9.500,2.085
a,125207,0.000,6.572,36.000,6.572,7.603,-0.127,0.087,-0.676,2.072,9.410,2.166
a,125211,0.000,6.503,36.000,6.503,7.603,0.117,0.087,1.004,2.081,9.419,2.079
a,125214,0.000,6.433,36.000,6.433,7.559,-0.218,-0.112,0.576,2.063,9.489,2.127
a,125218,0.000,6.363,36.000,6.363,7.427,0.041,-0.066,-0.523,2.085,9.427,2.121
a,125222,0.000,6.292,36.000,6.292,7.427,-0.050,0.148,0.302,2.105,9.415,2.093
a,125226,0.000,6.221,36.000,6.221,7.339,-0.188,-0.020,-0.523,2.105,9.479,2.116
a,125230,0.000,6.149,36.000,6.149,7.383,0.041,0.041,-0.309,2.051,9.431,2.151
a,125235,0.000,6.077,36.000,6.077,6.943,-0.050,-0.127,-0.141,2.107,9.456,2.108
a,125239,0.000,6.004,36.000,6.004,6.987,-0.234,-0.127,-0.737,2.089,9.465,2.112
a,125243,0.000,5.930,36.000,5.930,6.943,-0.157,-0.066,1.080,2.076,9.469,2.138
a,125246,0.000,5.856,36.000,5.856,6.812,0.209,-0.050,0.943,2.069,9.483,2.119
a,125251,0.000,5.781,36.000,5.781,6.855,0.041,-0.173,-0.294,2.069,9.433,2.116
a,125254,0.000,5.706,36.000,5.706,6.899,0.163,-0.234,0.011,2.069,9.482,2.112
a,125259,0.000,5.630,36.000,5.630,6.855,-0.050,0.316,-0.187,2.082,9.473,2.079
a,125262,0.000,5.554,36.000,5.554,6.855,0.102,0.163,0.500,2.137,9.436,2.109
a,125266,0.000,5.477,36.000,5.477,6.855,-0.234,-0.157,-0.370,2.082,9.509,2.148
a,125270,0.000,5.400,36.000,5.400,6.768,-0.020,0.087,1.340,2.078,9.465,2.125
a,125274,0.000,5.322,36.000,5.322,6.812,-0.035,-0.249,0.302,2.125,9.473,2.125
a,125278,0.000,5.244,36.000,5.244,7.603,-0.005,-0.127,0.195,2.070,9.494,2.143
a,125282,0.000,5.165,36.000,5.165,6.680,0.209,-0.020,-0.004,2.047,9.436,2.114
a,125286,0.000,5.086,36.000,5.086,6.724,-0.066,-0.020,-0.645,2.109,9.495,2.099
a,125290,0.000,5.006,36.000,5.006,6.724,0.209,-0.020,0.011,2.089,9.482,2.144
a,125294,0.000,4.926,36.000,4.926,6.636,0.041,0.148,-0.844,2.057,9.461,2.100
a,125298,0.000,4.845,36.000,4.845,6.636,0.179,0.026,0.439,2.107,9.482,2.131
a,125302,0.000,4.764,36.000,4.764,6.196,-0.279,0.041,-0.187,2.085,9.482,2.102
a,125306,0.000,4.682,36.000,4.682,6.240,-0.112,-0.020,0.027,2.085,9.510,2.134
a,125310,0.000,4.600,36.000,4.600,6.152,0.163,0.041,0.378,2.089,9.474,2.120
a,125314,0.000,4.517,36.000,4.517,6.152,0.041,-0.295,-0.477,2.105,9.481,2.107
a,125319,0.000,4.434,36.000,4.434,6.108,-0.188,0.041,-0.844,2.069,9.479,2.127
a,125322,0.000,4.351,36.000,4.351,5.977,0.209,-0.005,0.622,2.014,9.450,2.125
a,125326,0.000,4.267,36.000,4.267,5.493,-0.188,0.041,-0.202,2.144,9.371,2.113
a,125330,0.000,4.183,36.000,4.183,5.317,-0.112,0.224,0.958,2.073,9.486,2.081
a,125334,0.000,4.098,36.000,4.098,5.273,0.056,0.163,1.019,2.045,9.485,2.151
a,125338,0.000,4.013,36.000,4.013,4.878,0.056,-0.081,-1.057,2.112,9.444,2.108
a,125342,0.000,3.927,36.000,3.927,4.834,0.041,-0.173,-0.737,2.109,9.450,2.106
a,125346,0.000,3.841,36.000,3.841,5.229,0.087,0.255,1.508,2.031,9.433,2.137
a,125351,0.000,3.755,36.000,3.755,4.922,0.102,0.270,0.943,2.105,9.413,2.127
a,125355,0.000,3.668,36.000,3.668,4.922,-0.112,-0.005,0.698,2.122,9.464,2.108
a,125358,0.000,3.581,36.000,3.581,5.229,-0.050,-0.188,-0.416,2.057,9.480,2.131
a,125362,0.000,3.494,36.000,3.494,4.746,-0.279,-0.035,-0.630,2.120,9.440,2.097
a,125366,0.000,3.406,36.000,3.406,4.790,-0.432,-0.157,0.683,2.131,9.450,2.110
a,125370,0.000,3.318,36.000,3.318,4.702,0.209,0.209,0.378,1.976,9.439,2.154
a,125374,0.000,3.229,36.000,3.229,4.570,0.056,0.148,0.240,2.112,9.400,2.087
a,125379,0.000,3.140,36.000,3.140,4.175,0.087,-0.127,-0.431,2.120,9.432,2.131
a,125383,0.000,3.051,36.000,3.051,4.175,-0.127,0.209,-0.630,1.980,9.451,2.112
a,125387,0.000,2.962,36.000,2.962,4.131,0.224,0.133,0.118,2.096,9.458,2.143
a,125390,0.000,2.872,36.000,2.872,4.087,-0.050,-0.066,0.286,2.137,9.493,2.084
a,125394,0.000,2.782,36.000,2.782,4.087,0.072,-0.142,0.347,2.022,9.406,2.127
a,125398,0.000,2.691,36.000,2.691,4.131,-0.020,0.148,-0.630,2.051,9.470,2.151
a,125403,0.000,2.600,36.000,2.600,4.087,-0.005,-0.295,0.439,2.144,9.403,2.051
a,125407,0.000,2.509,36.000,2.509,3.999,-0.127,0.209,-0.202,2.085,9.421,2.119
a,125411,0.000,2.418,36.000,2.418,3.999,0.148,0.087,-0.599,2.014,9.382,2.126
a,125415,0.000,2.326,36.000,2.326,3.911,0.056,-0.112,0.515,2.131,9.445,2.096
a,125418,0.000,2.234,36.000,2.234,3.867,0.056,-0.173,0.073,2.115,9.427,2.113
a,125422,0.000,2.142,36.000,2.142,3.472,0.087,-0.173,-1.469,1.988,9.445,2.122
a,125426,0.000,2.050,36.000,2.050,3.955,-0.295,0.148,-1.225,2.119,9.454,2.127
a,125430,0.000,1.957,36.000,1.957,3.384,-0.386,-0.157,0.698,2.166,9.493,2.112
a,125434,0.000,1.864,36.000,1.864,3.428,-0.050,-0.050,0.622,2.025,9.436,2.120
a,125438,0.000,1.771,36.000,1.771,3.384,0.194,0.316,-0.324,2.045,9.445,2.148
a,125442,0.000,1.678,36.000,1.678,3.340,-0.005,-0.173,0.439,2.194,9.570,2.096
a,125446,0.000,1.584,36.000,1.584,3.296,-0.341,-0.127,-0.676,2.076,9.544,2.116
a,125450,0.000,1.491,36.000,1.491,3.296,0.270,0.209,-0.202,1.985,9.454,2.169
a,125454,0.000,1.397,36.000,1.397,3.252,0.072,0.163,1.721,2.113,9.407,2.185
a,125458,0.000,1.303,36.000,1.303,3.208,-0.005,-0.463,-1.317,2.127,9.422,2.046
a,125462,0.000,1.208,36.000,1.208,3.164,-0.173,0.209,0.240,1.985,9.408,2.186
a,125467,0.000,1.114,36.000,1.114,2.725,0.316,0.637,-1.256,2.091,9.510,2.094
a,125470,0.000,1.019,36.000,1.019,4.043,-0.325,-0.341,0.408,2.209,9.483,2.069
a,125474,0.000,0.924,36.000,0.924,2.593,-0.005,-0.005,0.805,2.010,9.471,2.132
a,125478,0.000,0.830,36.000,0.830,2.065,0.056,0.194,-0.905,2.034,9.444,2.106
a,125482,0.000,0.734,36.000,0.734,2.505,-0.173,0.087,0.027,2.146,9.465,2.097
a,125486,0.000,0.639,36.000,0.639,2.065,-0.173,-0.447,0.469,2.085,9.437,2.137
a,125490,0.000,0.544,36.000,0.544,1.934,-0.188,0.209,-0.920,2.023,9.413,2.105
a,125494,0.000,0.449,36.000,0.449,1.890,-0.173,0.087,-0.034,2.109,9.444,2.096
a,125498,0.000,0.353,36.000,0.353,1.846,0.209,-0.188,-1.073,2.103,9.480,2.115
a,125503,0.000,0.257,36.000,0.257,1.890,0.041,0.087,-0.370,2.053,9.424,2.114
a,125507,0.000,0.162,36.000,0.162,1.846,0.163,0.026,-0.798,2.065,9.438,2.127
a,125510,0.000,0.066,36.000,0.066,1.846,-0.096,-0.127,0.698,2.160,9.440,2.127
a,125514,0.000,-0.030,36.000,-0.030,1.846,-0.112,-0.066,0.073,2.069,9.431,2.136
a,125518,0.000,-0.126,36.000,-0.126,1.802,0.041,0.362,-0.859,2.058,9.439,2.138
a,125522,0.000,-0.222,36.000,-0.222,1.802,-0.279,-0.234,0.225,2.160,9.407,2.116
a,125527,0.000,-0.318,36.000,-0.318,1.406,-0.279,-0.447,0.256,2.097,9.464,2.093
a,125531,0.000,-0.414,36.000,-0.414,1.187,0.209,0.209,-0.050,2.041,9.418,2.148
a,125535,0.000,-0.510,36.000,-0.510,1.714,0.056,-0.005,0.698,2.109,9.451,2.075
a,125538,0.000,-0.606,36.000,-0.606,1.099,-0.050,-0.127,-0.095,2.119,9.455,2.120
a,125542,0.000,-0.702,36.000,-0.702,1.187,-0.005,-0.050,0.973,2.047,9.471,2.097
a,125546,0.000,-0.798,36.000,-0.798,0.703,0.209,0.255,-0.004,2.081,9.420,2.120
a,125550,0.000,-0.894,36.000,-0.894,0.527,-0.112,-0.234,0.240,2.143,9.379,2.108
a,125554,0.000,-0.990,36.000,-0.990,0.483,0.163,0.087,0.210,2.039,9.400,2.126
a,125559,0.000,-1.086,36.000,-1.086,0.000,0.209,0.362,-0.156,2.058,9.442,2.103
a,125563,0.000,-1.182,36.000,-1.182,0.483,-0.218,-0.112,0.897,2.162,9.418,2.109
a,125566,0.000,-1.278,36.000,-1.278,0.396,0.011,-0.127,0.698,2.058,9.419,2.137
a,125571,0.000,-1.374,36.000,-1.374,0.396,0.072,0.056,1.340,2.063,9.433,2.127
a,125575,0.000,-1.470,36.000,-1.470,0.352,-0.020,0.041,-1.302,2.128,9.436,2.122
a,125578,0.000,-1.566,36.000,-1.566,-0.044,-0.218,-0.722,0.027,2.120,9.455,2.090
a,125582,0.000,-1.661,36.000,-1.661,-0.044,0.072,0.072,0.347,2.041,9.566,2.125
a,125586,0.000,-1.757,36.000,-1.757,-0.044,-0.020,0.362,-0.202,2.094,9.438,2.142
a,125590,0.000,-1.852,36.000,-1.852,-0.044,-0.188,-0.341,-1.286,2.122,9.485,2.109
a,125594,0.000,-1.948,36.000,-1.948,-0.132,-0.173,-0.218,1.004,2.081,9.446,2.122
a,125598,0.000,-2.043,36.000,-2.043,-0.132,0.117,0.026,0.286,2.070,9.437,2.128
a,125602,0.000,-2.138,36.000,-2.138,-0.220,-0.050,0.072,0.515,2.122,9.428,2.127
a,125606,0.000,-2.233,36.000,-2.233,-0.352,-0.112,-0.112,0.851,2.103,9.413,2.103
a,125610,0.000,-2.328,36.000,-2.328,-0.264,-0.173,0.056,-0.156,2.076,9.476,2.127
a,125615,0.000,-2.422,36.000,-2.422,-0.352,0.209,-0.112,0.515,2.072,9.422,2.122
a,125618,0.000,-2.517,36.000,-2.517,-0.747,0.102,0.026,-0.584,2.127,9.468,2.061
a,125622,0.000,-2.611,36.000,-2.611,-0.835,0.072,0.072,0.195,2.034,9.415,2.144
a,125626,0.000,-2.705,36.000,-2.705,-0.967,0.041,-0.127,-1.134,2.119,9.331,2.103
a,125630,0.000,-2.799,36.000,-2.799,-1.099,0.072,-0.005,1.874,2.140,9.427,2.096
a,125634,0.000,-2.893,36.000,-2.893,-1.450,0.163,0.209,-0.202,2.016,9.418,2.151
a,125638,0.000,-2.986,36.000,-2.986,-1.494,0.148,0.209,-0.370,2.119,9.413,2.100
a,125642,0.000,-3.080,36.000,-3.080,-1.538,-0.066,0.087,-0.676,2.120,9.444,2.108
a,125646,0.000,-3.173,36.000,-3.173,-1.406,-0.066,0.041,-0.737,2.022,9.446,2.116
a,125651,0.000,-3.266,36.000,-3.266,-1.450,0.163,0.148,0.424,2.101,9.438,2.139
a,125654,0.000,-3.358,36.000,-3.358,-1.494,-0.386,0.087,0.118,2.103,9.457,2.078
a,125658,0.000,-3.450,36.000,-3.450,-1.494,0.163,-0.279,0.836,2.084,9.458,2.134
a,125662,0.000,-3.542,36.000,-3.542,-1.494,-0.050,0.224,0.729,2.078,9.456,2.130
a,125666,0.000,-3.634,36.000,-3.634,-1.494,-0.112,-0.142,-0.462,2.082,9.450,2.112
a,125670,0.000,-3.725,36.000,-3.725,-1.582,-0.218,-0.295,-0.050,2.166,9.455,2.116
a,125675,0.000,-3.817,36.000,-3.817,-1.538,-0.066,0.255,-1.134,2.049,9.396,2.103
a,125679,0.000,-3.907,36.000,-3.907,-1.538,0.087,-0.066,-0.447,2.094,9.483,2.110
a,125682,0.000,-3.998,36.000,-3.998,-1.714,-0.203,0.056,1.294,2.084,9.415,2.102
a,125686,0.000,-4.088,36.000,-4.088,-2.109,0.102,-0.157,0.500,2.084,9.452,2.091
a,125690,0.000,-4.178,36.000,-4.178,-1.802,-0.066,0.041,-0.462,2.078,9.451,2.108
a,125694,0.000,-4.267,36.000,-4.267,-0.352,0.163,-0.127,0.057,2.089,9.492,2.113
a,125698,0.000,-4.357,36.000,-4.357,-2.373,-0.050,-0.005,0.744,2.113,9.458,2.100
a,125703,0.000,-4.445,36.000,-4.445,-2.329,0.163,-0.005,0.943,2.047,9.402,2.091
a,125707,0.000,-4.534,36.000,-4.534,-2.461,-0.050,0.026,-0.844,2.128,9.412,2.119
a,125711,0.000,-4.622,36.000,-4.622,-2.461,0.224,0.194,0.011,2.085,9.419,2.122
a,125715,0.000,-4.709,36.000,-4.709,-2.944,0.148,-0.295,-0.706,2.089,9.461,2.114
a,125719,0.000,-4.796,36.000,-4.796,-2.988,0.285,0.163,1.324,2.049,9.413,2.125
a,125723,0.000,-4.883,36.000,-4.883,-2.988,-0.050,0.163,0.592,2.073,9.451,2.102
a,125726,0.000,-4.970,36.000,-4.970,-2.988,0.011,-0.035,0.454,2.112,9.438,2.119
a,125730,0.000,-5.055,36.000,-5.055,-2.988,0.072,-0.142,-0.187,2.096,9.440,2.134
a,125734,0.000,-5.141,36.000,-5.141,-2.988,-0.005,-0.020,0.286,2.081,9.463,2.110
a,125738,0.000,-5.226,36.000,-5.226,-2.988,-0.035,0.148,0.744,2.134,9.458,2.121
a,125742,0.000,-5.311,36.000,-5.311,-3.120,0.087,-0.295,-1.149,2.127,9.475,2.116
a,125746,0.000,-5.395,36.000,-5.395,-3.164,-0.188,-0.127,-0.645,2.081,9.535,2.132
a,125750,0.000,-5.478,36.000,-5.478,-3.164,0.438,0.423,0.149,2.011,9.409,2.158
a,125754,0.000,-5.561,36.000,-5.561,-3.647,-0.112,0.148,0.225,2.146,9.416,2.075
a,125758,0.000,-5.644,36.000,-5.644,-3.735,0.209,-0.173,0.164,2.076,9.371,2.105
a,125762,0.000,-5.726,36.000,-5.726,-3.779,0.163,0.545,0.989,1.951,9.443,2.108
a,125767,0.000,-5.808,36.000,-5.808,-3.911,-0.005,-0.279,0.531,2.209,9.505,2.122
a,125770,0.000,-5.889,36.000,-5.889,-4.307,-0.096,-0.341,0.653,2.042,9.438,2.081
a,125774,0.000,-5.969,36.000,-5.969,-4.351,0.041,0.041,-1.332,2.002,9.444,2.163
a,125778,0.000,-6.049,36.000,-6.049,-4.351,-0.050,-0.127,0.011,2.148,9.489,2.132
a,125782,0.000,-6.129,36.000,-6.129,-4.351,0.041,-0.447,-0.233,2.094,9.444,2.106
a,125786,0.000,-6.208,36.000,-6.208,-4.307,0.209,-0.127,0.286,2.018,9.454,2.167
a,125790,0.000,-6.286,36.000,-6.286,-4.307,0.163,0.255,-0.111,2.115,9.421,2.103
a,125794,0.000,-6.364,36.000,-6.364,-4.351,-0.173,0.041,0.240,2.160,9.454,2.109
a,125799,0.000,-6.441,36.000,-6.441,-4.351,0.179,0.087,0.515,2.054,9.468,2.140
a,125803,0.000,-6.517,36.000,-6.517,-4.307,0.117,-0.035,0.011,2.051,9.434,2.108
a,125806,0.000,-6.593,36.000,-6.593,-3.560,-0.096,-0.050,1.111,2.119,9.457,2.099
a,125810,0.000,-6.668,36.000,-6.668,-4.395,-0.295,-0.341,-0.889,2.158,9.386,2.081
a,125815,0.000,-6.743,36.000,-6.743,-4.351,-0.203,0.209,0.744,2.039,9.333,2.122
a,125818,0.000,-6.817,36.000,-6.817,-4.351,-0.112,0.133,-0.416,2.101,9.462,2.087
a,125822,0.000,-6.891,36.000,-6.891,-4.438,-0.050,0.255,0.179,2.065,9.418,2.099
a,125827,0.000,-6.963,36.000,-6.963,-4.482,0.102,-0.173,0.424,2.069,9.452,2.084
a,125831,0.000,-7.035,36.000,-7.035,-4.570,0.056,0.056,0.912,2.073,9.418,2.154
a,125834,0.000,-7.107,36.000,-7.107,-4.614,0.087,-0.020,-0.691,2.107,9.482,2.073
a,125838,0.000,-7.178,36.000,-7.178,-5.010,-0.127,-0.234,-0.782,2.137,9.415,2.125
a,125842,0.000,-7.248,36.000,-7.248,-5.054,-0.050,0.087,0.240,2.023,9.458,2.108
a,125846,0.000,-7.317,36.000,-7.317,-5.054,-0.035,-0.005,1.294,2.088,9.489,2.131
a,125850,0.000,-7.386,36.000,-7.386,-5.186,0.133,-0.173,1.324,2.097,9.468,2.138
a,125855,0.000,-7.453,36.000,-7.453,-5.273,-0.005,-0.463,-0.660,2.081,9.458,2.125
a,125859,0.000,-7.521,36.000,-7.521,-5.273,0.072,0.133,0.408,2.097,9.482,2.112
a,125862,0.000,-7.587,36.000,-7.587,-5.625,0.148,-0.020,-0.920,2.105,9.437,2.113
a,125867,0.000,-7.653,36.000,-7.653,-5.317,-0.127,-0.066,-0.691,2.084,9.455,2.119
a,125870,0.000,-7.718,36.000,-7.718,-5.317,0.117,0.072,0.286,2.072,9.474,2.134
a,125874,0.000,-7.782,36.000,-7.782,-4.966,-0.005,0.041,0.439,2.089,9.459,2.094
a,125878,0.000,-7.846,36.000,-7.846,-5.713,-0.173,-0.127,0.286,2.119,9.366,2.116
a,125882,0.000,-7.908,36.000,-7.908,-5.757,-0.020,-0.173,-0.294,2.060,9.450,2.097
a,125886,0.000,-7.970,36.000,-7.970,-5.757,0.102,0.224,1.050,2.034,9.463,2.133
a,125890,0.000,-8.031,36.000,-8.031,-5.801,0.163,-0.218,0.714,2.058,9.445,2.099
a,125894,0.000,-8.092,36.000,-8.092,-5.933,-0.127,-0.173,-0.309,2.120,9.431,2.084
a,125898,0.000,-8.151,36.000,-8.151,-5.977,0.102,-0.020,0.179,2.031,9.428,2.116
a,125902,0.000,-8.210,36.000,-8.210,-6.328,-0.020,0.469,-0.706,2.081,9.481,2.072
a,125906,0.000,-8.268,36.000,-8.268,-6.021,-0.112,-0.050,0.622,2.162,9.450,2.109
a,125910,0.000,-8.325,36.000,-8.325,-6.021,-0.050,-0.066,0.393,2.027,9.479,2.085
a,125915,0.000,-8.381,36.000,-8.381,-6.021,0.072,-0.142,-0.141,2.072,9.433,2.156
a,125918,0.000,-8.437,36.000,-8.437,-5.977,-0.005,-0.050,0.698,2.127,9.486,2.103
a,125922,0.000,-8.491,36.000,-8.491,-6.372,-0.157,-0.295,0.714,2.072,9.482,2.150
a,125926,0.000,-8.545,36.000,-8.545,-5.977,0.148,-0.234,-0.263,2.060,9.505,2.119
a,125930,0.000,-8.598,36.000,-8.598,-6.460,-0.020,-0.295,-0.966,2.100,9.452,2.096
a,125934,0.000,-8.650,36.000,-8.650,-6.416,-0.173,-0.142,-0.248,2.069,9.459,2.119
a,125938,0.000,-8.701,36.000,-8.701,-6.548,0.087,0.148,-0.218,2.029,9.449,2.126
a,125942,0.000,-8.751,36.000,-8.751,-6.504,0.056,-0.066,-0.080,2.107,9.457,2.100
a,125946,0.000,-8.800,36.000,-8.800,-6.504,-0.173,-0.157,0.622,2.085,9.469,2.126
a,125951,0.000,-8.849,36.000,-8.849,-6.504,-0.050,0.316,0.240,2.047,9.446,2.112
a,125954,0.000,-8.896,36.000,-8.896,-5.229,0.056,-0.173,0.073,2.134,9.489,2.109
a,125958,0.000,-8.943,36.000,-8.943,-6.592,0.072,0.102,1.172,2.049,9.400,2.114
a,125963,0.000,-8.988,36.000,-8.988,-6.548,-0.112,0.072,-1.164,2.049,9.443,2.106
a,125966,0.000,-9.033,36.000,-9.033,-6.636,-0.203,-0.234,0.592,2.115,9.487,2.148
a,125970,0.000,-9.077,36.000,-9.077,-7.075,0.148,0.148,-0.309,2.119,9.408,2.075
a,125975,0.000,-9.120,36.000,-9.120,-7.119,-0.157,-0.249,0.454,2.072,9.406,2.128
a,125979,0.000,-9.162,36.000,-9.162,-7.163,-0.005,0.087,0.118,2.063,9.464,2.114
a,125983,0.000,-9.203,36.000,-9.203,-6.548,-0.112,-0.020,-0.050,2.107,9.452,2.105
a,125986,0.000,-9.243,36.000,-9.243,-7.163,-0.173,-0.295,0.454,2.115,9.504,2.116
a,125990,0.000,-9.282,36.000,-9.282,-7.207,-0.050,-0.066,-0.050,2.037,9.507,2.145
a,125994,0.000,-9.320,36.000,-9.320,-7.163,0.209,-0.127,-0.156,2.091,9.462,2.132
a,125998,0.000,-9.357,36.000,-9.357,-7.119,-0.127,-0.127,-0.462,2.143,9.457,2.125
a,126003,0.000,-9.393,36.000,-9.393,-7.207,-0.020,-0.295,-1.011,2.045,9.454,2.090
a,126007,0.000,-9.428,36.000,-9.428,-7.119,0.148,0.087,-0.767,2.085,9.439,2.138
a,126010,0.000,-9.462,36.000,-9.462,-7.163,0.209,-0.249,-0.477,2.122,9.476,2.061
a,126015,0.000,-9.496,36.000,-9.496,-7.163,0.117,-0.005,1.370,2.069,9.427,2.122
a,126019,0.000,-9.528,36.000,-9.528,-7.163,0.209,0.148,0.118,2.054,9.451,2.088
a,126022,0.000,-9.559,36.000,-9.559,-4.482,0.056,0.270,0.592,2.088,9.475,2.088
a,126026,0.000,-9.589,36.000,-9.589,-7.251,0.163,-0.127,-0.004,2.049,9.425,2.088
a,126030,0.000,-9.618,36.000,-9.618,-7.339,0.179,-0.142,0.332,2.096,9.449,2.109
a,126034,0.000,-9.646,36.000,-9.646,-7.383,-0.325,0.209,0.240,2.070,9.443,2.112
a,126038,0.000,-9.673,36.000,-9.673,-7.383,-0.050,0.041,0.179,2.070,9.425,2.127
a,126042,0.000,-9.699,36.000,-9.699,-7.383,-0.066,-0.127,-0.798,2.144,9.467,2.126
a,126046,0.000,-9.724,36.000,-9.724,-7.383,-0.188,-0.020,-0.676,2.039,9.468,2.109
a,126050,0.000,-9.748,36.000,-9.748,-7.383,-0.050,0.438,0.882,2.082,9.459,2.133
a,126054,0.000,-9.771,36.000,-9.771,-7.383,-0.157,-0.218,1.126,2.120,9.471,2.102
a,126058,0.000,-9.792,36.000,-9.792,-7.339,-0.066,0.087,-0.309,2.053,9.443,2.105
a,126062,0.000,-9.813,36.000,-9.813,-7.383,0.072,0.133,0.302,2.070,9.448,2.113
a,126067,0.000,-9.833,36.000,-9.833,-7.383,-0.020,-0.127,-0.477,2.107,9.443,2.088
a,126070,0.000,-9.851,36.000,-9.851,-7.383,-0.050,-0.066,0.225,2.081,9.434,2.099
a,126074,0.000,-9.869,36.000,-9.869,-7.383,0.194,0.041,-0.660,2.085,9.438,2.132
a,126078,0.000,-9.885,36.000,-9.885,-7.383,0.072,-0.157,1.447,2.088,9.452,2.085
a,126082,0.000,-9.901,36.000,-9.901,-7.383,0.163,-0.341,-0.095,2.089,9.455,2.136
a,126086,0.000,-9.915,36.000,-9.915,-7.383,-0.066,0.087,-0.202,2.053,9.452,2.103
a,126090,0.000,-9.928,36.000,-9.928,-7.339,0.163,0.041,0.057,2.070,9.457,2.113
a,126094,0.000,-9.940,36.000,-9.940,-7.383,-0.096,0.163,1.111,2.094,9.452,2.110
a,126099,0.000,-9.951,36.000,-9.951,-7.383,-0.188,-0.173,-1.332,2.065,9.442,2.109
a,126103,0.000,-9.961,36.000,-9.961,-7.383,-0.112,0.148,0.240,2.082,9.454,2.088
a,126106,0.000,-9.970,36.000,-9.970,-7.383,-0.112,0.056,0.592,2.116,9.419,2.100
a,126110,0.000,-9.977,36.000,-9.977,-7.383,0.056,0.041,0.393,2.105,9.334,2.097
a,126114,0.000,-9.984,36.000,-9.984,-7.778,-0.295,0.087,-0.798,2.091,9.457,2.149
a,126118,0.000,-9.989,36.000,-9.989,-7.910,-0.173,0.148,0.225,2.088,9.445,2.138
a,126123,0.000,-9.994,36.000,-9.994,-7.822,-0.218,0.423,0.271,2.105,9.416,2.084
a,126127,0.000,-9.997,36.000,-9.997,-7.866,0.056,0.102,1.080,2.091,9.422,2.122
a,126131,0.000,-9.999,36.000,-9.999,-7.910,-0.020,0.087,-0.538,2.066,9.432,2.126
a,126134,0.000,-10.000,36.000,-10.000,-7.910,-0.188,-0.066,-0.691,2.069,9.421,2.113
a,126138,0.000,-10.000,36.000,-10.000,-7.866,-0.173,-0.234,0.332,2.066,9.463,2.109
a,126142,0.000,-9.998,36.000,-9.998,-7.822,0.056,0.087,0.118,2.066,9.452,2.113
a,126146,0.000,-9.996,36.000,-9.996,-7.866,-0.066,-0.020,-0.676,2.084,9.437,2.119
a,126151,0.000,-9.993,36.000,-9.993,-7.866,-0.020,-0.066,-0.462,2.088,9.421,2.094
a,126155,0.000,-9.988,36.000,-9.988,-7.866,-0.050,-0.066,-0.034,2.070,9.444,2.134
a,126158,0.000,-9.982,36.000,-9.982,-7.954,-0.173,0.102,0.958,2.084,9.446,2.120
a,126163,0.000,-9.975,36.000,-9.975,-7.866,0.041,-0.066,-0.645,2.097,9.442,2.116
a,126167,0.000,-9.967,36.000,-9.967,-7.910,-0.005,-0.173,0.011,2.085,9.457,2.120
a,126170,0.000,-9.958,36.000,-9.958,-7.954,0.148,0.148,-1.256,2.101,9.450,2.138
a,126174,0.000,-9.947,36.000,-9.947,-7.866,-0.005,-0.173,-0.095,2.097,9.483,2.122
a,126178,0.000,-9.936,36.000,-9.936,-7.866,0.163,-0.127,0.424,2.082,9.434,2.091
a,126182,0.000,-9.923,36.000,-9.923,-7.910,0.041,-0.127,-0.370,2.078,9.464,2.130
a,126186,0.000,-9.909,36.000,-9.909,-7.866,-0.035,-0.157,1.279,2.091,9.428,2.116
a,126190,0.000,-9.894,36.000,-9.894,-7.910,-0.127,0.209,-0.844,2.107,9.451,2.138
a,126194,0.000,-9.878,36.000,-9.878,-7.866,-0.050,0.041,0.134,2.094,9.465,2.116
a,126198,0.000,-9.861,36.000,-9.861,-7.910,0.163,-0.157,0.668,2.125,9.459,2.101
a,126202,0.000,-9.843,36.000,-9.843,-7.910,0.087,-0.173,-0.431,2.088,9.448,2.109
a,126206,0.000,-9.823,36.000,-9.823,-7.910,-0.218,-0.127,0.073,2.063,9.467,2.125
a,126210,0.000,-9.803,36.000,-9.803,-7.866,0.117,-0.081,-0.050,2.089,9.465,2.121
a,126214,0.000,-9.781,36.000,-9.781,-7.866,-0.066,-0.020,-0.248,2.089,9.457,2.115
a,126218,0.000,-9.758,36.000,-9.758,-7.866,-0.035,0.026,-0.034,2.082,9.462,2.125
a,126222,0.000,-9.734,36.000,-9.734,-7.954,0.041,-0.020,-0.691,2.073,9.457,2.125
a,126227,0.000,-9.709,36.000,-9.709,-7.866,0.117,-0.417,0.347,2.082,9.455,2.122
a,126231,0.000,-9.682,36.000,-9.682,-7.866,-0.005,0.224,0.515,2.088,9.474,2.107
a,126234,0.000,-9.655,36.000,-9.655,-7.910,0.087,-0.234,-0.966,2.109,9.458,2.106
a,126238,0.000,-9.626,36.000,-9.626,-7.866,-0.050,0.224,0.912,2.057,9.444,2.116
a,126242,0.000,-9.596,36.000,-9.596,-7.866,-0.127,-0.066,-0.370,2.072,9.455,2.114
a,126246,0.000,-9.565,36.000,-9.565,-7.954,0.209,0.224,0.500,2.078,9.477,2.105
a,126251,0.000,-9.533,36.000,-9.533,-7.822,0.087,-0.020,-0.218,2.097,9.483,2.136
a,126255,0.000,-9.500,36.000,-9.500,-7.822,-0.112,0.102,0.912,2.072,9.461,2.108
a,126258,0.000,-9.466,36.000,-9.466,-7.866,-0.050,0.041,0.027,2.073,9.475,2.132
a,126262,0.000,-9.430,36.000,-9.430,-7.910,0.087,-0.127,-0.324,2.112,9.464,2.122
a,126266,0.000,-9.393,36.000,-9.393,-7.910,-0.050,0.026,-0.416,2.088,9.463,2.119
a,126270,0.000,-9.356,36.000,-9.356,-7.822,-0.005,-0.142,0.576,2.082,9.424,2.122
a,126274,0.000,-9.317,36.000,-9.317,-7.866,0.056,-0.050,0.515,2.088,9.436,2.119
a,126279,0.000,-9.277,36.000,-9.277,-7.866,-0.005,0.209,0.302,2.084,9.419,2.121
a,126283,0.000,-9.236,36.000,-9.236,-7.866,-0.112,0.209,0.027,2.081,9.454,2.112
a,126286,0.000,-9.194,36.000,-9.194,-7.822,-0.173,-0.050,0.622,2.105,9.438,2.099
a,126290,0.000,-9.150,36.000,-9.150,-7.866,-0.173,-0.127,-0.080,2.091,9.422,2.102
a,126294,0.000,-9.106,36.000,-9.106,-7.866,0.011,-0.173,0.805,2.091,9.458,2.106
a,126298,0.000,-9.060,36.000,-9.060,-7.910,-0.035,0.133,-0.080,2.072,9.450,2.097
a,126302,0.000,-9.013,36.000,-9.013,-7.866,0.041,0.041,-0.798,2.094,9.445,2.122
a,126307,0.000,-8.966,36.000,-8.966,-7.866,-0.112,0.255,-0.050,2.094,9.479,2.122
a,126311,0.000,-8.917,36.000,-8.917,-7.866,0.102,0.056,0.515,2.084,9.448,2.116
a,126314,0.000,-8.867,36.000,-8.867,-7.910,-0.005,-0.066,-0.187,2.057,9.454,2.102
a,126319,0.000,-8.816,36.000,-8.816,-7.910,0.056,0.148,0.134,2.082,9.443,2.119
a,126323,0.000,-8.764,36.000,-8.764,-7.866,-0.112,0.041,0.347,2.054,9.425,2.125
a,126326,0.000,-8.710,36.000,-8.710,-7.822,0.148,-0.173,-0.447,2.073,9.452,2.103
a,126330,0.000,-8.656,36.000,-8.656,-7.910,0.056,0.102,0.973,2.078,9.444,2.125
a,126334,0.000,-8.601,36.000,-8.601,-7.866,-0.005,-0.234,0.347,2.115,9.482,2.119
a,126338,0.000,-8.544,36.000,-8.544,-7.910,-0.112,-0.005,0.698,2.081,9.450,2.121
a,126342,0.000,-8.487,36.000,-8.487,-7.910,-0.279,-0.050,0.622,2.097,9.443,2.130
a,126346,0.000,-8.428,36.000,-8.428,-7.866,-0.050,-0.112,1.004,2.073,9.446,2.085
a,126350,0.000,-8.369,36.000,-8.369,-7.866,0.087,-0.066,-1.302,2.100,9.450,2.103
a,126354,0.000,-8.308,36.000,-8.308,-7.910,0.255,0.255,-0.370,2.085,9.439,2.103
a,126358,0.000,-8.246,36.000,-8.246,-7.910,0.056,-0.112,0.958,2.094,9.416,2.122
a,126362,0.000,-8.183,36.000,-8.183,-7.866,-0.020,-0.127,-0.752,2.089,9.470,2.099
a,126367,0.000,-8.120,36.000,-8.120,-7.822,-0.112,0.148,-0.095,2.073,9.463,2.114
a,126370,0.000,-8.055,36.000,-8.055,-7.866,-0.081,0.041,1.721,2.084,9.483,2.134
a,126374,0.000,-7.989,36.000,-7.989,-7.910,0.026,-0.035,-1.622,2.116,9.452,2.120
a,126378,0.000,-7.922,36.000,-7.922,-7.822,-0.127,0.041,-0.523,2.070,9.439,2.096
a,126382,0.000,-7.854,36.000,-7.854,-7.822,0.102,-0.112,0.821,2.082,9.420,2.138
a,126386,0.000,-7.785,36.000,-7.785,-7.866,-0.173,-0.066,0.118,2.060,9.450,2.099
a,126390,0.000,-7.715,36.000,-7.715,-7.910,0.194,0.041,-0.660,2.078,9.464,2.120
a,126394,0.000,-7.645,36.000,-7.645,-7.910,0.041,-0.127,-0.584,2.081,9.470,2.101
a,126398,0.000,-7.573,36.000,-7.573,-7.910,-0.127,-0.066,-0.584,2.053,9.407,2.097
a,126403,0.000,-7.500,36.000,-7.500,-7.866,-0.066,0.041,-0.523,2.082,9.458,2.100
a,126406,0.000,-7.426,36.000,-7.426,-7.778,-0.127,-0.020,-0.370,2.119,9.428,2.082
a,126410,0.000,-7.351,36.000,-7.351,-7.866,-0.050,0.270,0.637,2.060,9.471,2.109
a,126414,0.000,-7.276,36.000,-7.276,-7.075,-0.157,0.224,1.111,2.122,9.463,2.097
a,126418,0.000,-7.199,36.000,-7.199,-7.910,-0.035,-0.249,-1.836,2.101,9.467,2.097
a,126422,0.000,-7.121,36.000,-7.121,-7.910,-0.173,-0.325,1.095,2.045,9.448,2.100
a,126427,0.000,-7.043,36.000,-7.043,-7.910,0.117,0.163,1.309,2.105,9.479,2.138
a,126431,0.000,-6.963,36.000,-6.963,-7.910,-0.127,-0.234,-0.370,2.088,9.474,2.096
a,126434,0.000,-6.883,36.000,-6.883,-7.822,-0.020,-0.402,-1.286,2.072,9.428,2.125
a,126438,0.000,-6.802,36.000,-6.802,-7.822,-0.066,0.148,-0.523,2.088,9.454,2.127
a,126442,0.000,-6.720,36.000,-6.720,-7.910,-0.218,-0.173,0.134,2.105,9.458,2.097
a,126446,0.000,-6.637,36.000,-6.637,-7.339,-0.112,0.056,0.851,2.049,9.418,2.137
a,126450,0.000,-6.553,36.000,-6.553,-7.295,0.041,0.148,-1.408,2.078,9.449,2.125
a,126455,0.000,-6.468,36.000,-6.468,-7.251,0.194,-0.066,-1.042,2.119,9.452,2.097
a,126458,0.000,-6.382,36.000,-6.382,-7.295,0.102,-0.173,-0.065,2.042,9.470,2.105
a,126463,0.000,-6.296,36.000,-6.296,-7.207,-0.005,-0.295,0.225,2.089,9.446,2.136
a,126467,0.000,-6.208,36.000,-6.208,-7.163,0.255,0.209,-0.279,2.073,9.467,2.107
a,126471,0.000,-6.120,36.000,-6.120,-7.075,-0.020,-0.218,0.225,2.108,9.456,2.122
a,126474,0.000,-6.031,36.000,-6.031,-7.075,-0.173,0.102,0.622,2.088,9.407,2.127
a,126478,0.000,-5.941,36.000,-5.941,-6.504,0.056,0.056,0.836,2.065,9.486,2.091
a,126482,0.000,-5.850,36.000,-5.850,-6.460,-0.050,-0.417,-0.340,2.119,9.497,2.143
a,126486,0.000,-5.759,36.000,-5.759,-6.416,-0.127,0.041,-0.950,2.065,9.513,2.096
a,126490,0.000,-5.667,36.000,-5.667,-5.933,0.438,0.270,0.683,2.076,9.439,2.121
a,126494,0.000,-5.574,36.000,-5.574,-5.889,-0.020,-0.020,-0.798,2.094,9.421,2.096
a,126498,0.000,-5.480,36.000,-5.480,-5.757,0.194,0.331,-0.660,2.058,9.505,2.120
a,126502,0.000,-5.385,36.000,-5.385,-5.669,0.056,0.087,0.286,2.085,9.457,2.114
a,126506,0.000,-5.290,36.000,-5.290,-5.713,-0.020,-0.066,-0.477,2.100,9.481,2.125
a,126510,0.000,-5.194,36.000,-5.194,-5.757,-0.050,0.056,0.073,2.064,9.459,2.091
a,126514,0.000,-5.097,36.000,-5.097,-5.713,0.087,0.209,-0.370,2.076,9.487,2.119
a,126519,0.000,-5.000,36.000,-5.000,-5.317,-0.050,-0.066,0.027,2.140,9.457,2.093
a,126522,0.000,-4.902,36.000,-4.902,-5.273,0.148,0.148,-0.599,2.063,9.427,2.097
a,126526,0.000,-4.803,36.000,-4.803,-5.186,0.011,0.163,1.126,2.076,9.454,2.103
a,126530,0.000,-4.703,36.000,-4.703,-5.142,-0.096,0.133,0.347,2.107,9.438,2.097
a,126534,0.000,-4.603,36.000,-4.603,-5.186,0.087,-0.020,-0.263,2.063,9.464,2.097
a,126538,0.000,-4.502,36.000,-4.502,-5.098,-0.402,-0.234,-0.416,2.122,9.448,2.112
a,126542,0.000,-4.401,36.000,-4.401,-5.010,0.087,-0.127,-0.966,2.085,9.505,2.121
a,126546,0.000,-4.299,36.000,-4.299,-4.570,0.209,-0.005,0.958,2.089,9.446,2.148
a,126551,0.000,-4.196,36.000,-4.196,-4.482,-0.050,-0.234,0.286,2.131,9.471,2.116
a,126554,0.000,-4.093,36.000,-4.093,-4.482,-0.112,0.255,-0.050,2.039,9.475,2.116
a,126558,0.000,-3.989,36.000,-3.989,-4.482,0.102,-0.066,0.286,2.091,9.464,2.132
a,126562,0.000,-3.884,36.000,-3.884,-4.438,-0.188,0.041,-0.202,2.096,9.481,2.130
a,126566,0.000,-3.779,36.000,-3.779,-4.307,0.087,0.087,-0.706,2.051,9.463,2.127
a,126570,0.000,-3.673,36.000,-3.673,-4.307,-0.112,0.041,0.439,2.103,9.493,2.107
a,126575,0.000,-3.567,36.000,-3.567,-4.307,0.163,-0.173,0.210,2.073,9.461,2.109
a,126579,0.000,-3.460,36.000,-3.460,-4.263,-0.005,-0.020,0.408,2.081,9.432,2.137
a,126583,0.000,-3.353,36.000,-3.353,-3.867,-0.005,0.087,-0.095,2.089,9.463,2.113
a,126587,0.000,-3.245,36.000,-3.245,-3.867,0.102,0.041,0.210,2.072,9.428,2.103
a,126590,0.000,-3.137,36.000,-3.137,-3.867,0.209,-0.112,0.714,2.082,9.449,2.127
a,126594,0.000,-3.028,36.000,-3.028,-3.208,0.041,-0.554,-0.187,2.132,9.521,2.109
a,126598,0.000,-2.919,36.000,-2.919,-3.735,0.041,0.041,-0.752,2.072,9.492,2.126
a,126603,0.000,-2.809,36.000,-2.809,-3.604,0.146,-0.165,-1.007,2.084,9.493,2.132
a,126607,0.000,-2.699,36.000,-2.699,-3.208,-0.067,-0.165,-1.145,2.120,9.456,2.115
a,126610,0.000,-2.589,36.000,-2.589,-3.120,-0.052,0.171,0.550,2.084,9.436,2.114
a,126615,0.000,-2.478,36.000,-2.478,-3.120,0.391,-0.180,-0.076,2.103,9.451,2.115
a,126619,0.000,-2.366,36.000,-2.366,-2.988,-0.281,-0.150,0.947,2.179,9.446,2.096
a,126622,0.000,-2.255,36.000,-2.255,-2.900,-0.052,0.217,-0.183,2.058,9.464,2.132
a,126626,0.000,-2.143,36.000,-2.143,-2.505,0.146,0.263,-0.412,2.069,9.477,2.142
a,126630,0.000,-2.030,36.000,-2.030,-2.461,-0.129,-0.287,-0.656,2.163,9.473,2.113
a,126634,0.000,-1.917,36.000,-1.917,-2.417,-0.037,0.079,1.146,2.073,9.457,2.096
a,126638,0.000,-1.804,36.000,-1.804,-2.417,0.055,-0.058,0.367,2.069,9.443,2.145
a,126642,0.000,-1.691,36.000,-1.691,-2.417,0.162,-0.058,0.046,2.137,9.473,2.081
a,126646,0.000,-1.577,36.000,-1.577,-2.417,-0.129,-0.394,-0.702,2.103,9.449,2.105
a,126650,0.000,-1.463,36.000,-1.463,-2.329,0.253,0.217,-0.793,2.049,9.418,2.120
a,126654,0.000,-1.349,36.000,-1.349,-1.582,0.268,-0.043,0.703,2.097,9.451,2.087
a,126658,0.000,-1.234,36.000,-1.234,-2.329,-0.052,0.095,-0.015,2.091,9.485,2.125
a,126662,0.000,-1.119,36.000,-1.119,-2.329,0.009,-0.012,0.504,2.060,9.377,2.112
a,126667,0.000,-1.004,36.000,-1.004,-2.197,-0.037,-0.073,-1.633,2.143,9.415,2.084
a,126670,0.000,-0.889,36.000,-0.889,-2.109,-0.006,-0.058,-0.076,2.105,9.483,2.122
a,126674,0.000,-0.774,36.000,-0.774,-1.758,0.192,-0.012,-0.671,2.060,9.457,2.132
a,126678,0.000,-0.658,36.000,-0.658,-1.758,0.391,0.140,0.306,2.076,9.424,2.125
a,126682,0.000,-0.542,36.000,-0.542,-1.582,0.329,0.034,-0.458,2.088,9.482,2.116
a,126686,0.000,-0.426,36.000,-0.426,-1.670,0.100,0.156,0.352,2.063,9.388,2.125
a,126690,0.000,-0.310,36.000,-0.310,-1.538,0.070,0.110,1.375,2.091,9.462,2.087
a,126694,0.000,-0.194,36.000,-0.194,-1.494,-0.052,-0.058,0.321,2.119,9.439,2.132
a,126698,0.000,-0.078,36.000,-0.078,-1.055,-0.205,0.034,-2.290,2.049,9.421,2.119
a,126703,0.000,0.038,36.000,0.038,1.230,0.085,0.095,-1.068,2.105,9.421,2.091
a,126706,0.000,0.155,36.000,0.155,-0.835,-0.129,-0.119,-0.549,2.072,9.470,2.103
a,126710,0.000,0.271,36.000,0.271,-0.308,-0.327,-0.211,0.657,2.127,9.428,2.075
a,126715,0.000,0.388,36.000,0.388,-0.264,0.146,0.156,-0.412,2.034,9.500,2.126
a,126718,0.000,0.504,36.000,0.504,-0.308,-0.067,-0.058,-0.488,2.109,9.479,2.082
a,126722,0.000,0.621,36.000,0.621,-0.220,0.024,-0.058,1.436,2.120,9.467,2.157
a,126726,0.000,0.737,36.000,0.737,-0.176,0.162,-0.165,0.291,2.023,9.421,2.072
a,126731,0.000,0.854,36.000,0.854,-0.176,0.085,-0.119,1.161,2.138,9.448,2.116
a,126735,0.000,0.970,36.000,0.970,-0.176,-0.129,0.156,-0.870,2.089,9.510,2.115
a,126738,0.000,1.087,36.000,1.087,-0.044,-0.022,-0.165,-0.992,2.041,9.464,2.148
a,126742,0.000,1.203,36.000,1.203,1.143,0.055,-0.241,-0.549,2.105,9.419,2.127
a,126746,0.000,1.319,36.000,1.319,0.439,0.055,-0.379,1.054,2.127,9.445,2.122
a,126750,0.000,1.436,36.000,1.436,0.571,0.223,0.278,1.176,2.008,9.481,2.161
a,126754,0.000,1.552,36.000,1.552,0.703,0.162,0.034,-0.610,2.089,9.463,2.109
a,126759,0.000,1.667,36.000,1.667,0.703,-0.052,-0.485,0.886,2.187,9.488,2.132
a,126762,0.000,1.783,36.000,1.783,1.099,0.039,-0.165,-0.564,2.031,9.474,2.138
a,126767,0.000,1.899,36.000,1.899,1.187,0.268,0.476,-0.030,2.042,9.354,2.151
a,126771,0.000,2.014,36.000,2.014,1.274,0.162,0.217,-0.076,2.148,9.470,2.077
a,126774,0.000,2.129,36.000,2.129,1.318,-0.022,-0.333,-1.312,2.084,9.457,2.094
a,126778,0.000,2.244,36.000,2.244,1.274,0.284,0.064,1.069,2.014,9.436,2.143
a,126782,0.000,2.359,36.000,2.359,1.274,0.085,0.095,1.649,2.120,9.433,2.125
a,126786,0.000,2.473,36.000,2.473,1.318,0.085,-0.394,-0.717,2.132,9.475,2.090
a,126790,0.000,2.588,36.000,2.588,1.758,-0.174,-0.119,-0.076,2.034,9.542,2.199
a,126794,0.000,2.701,36.000,2.701,1.802,0.268,0.369,0.184,2.054,9.485,2.107
a,126798,0.000,2.815,36.000,2.815,1.890,0.070,0.110,1.741,2.150,9.431,2.094
a,126802,0.000,2.928,36.000,2.928,1.890,-0.113,-0.226,-0.183,2.058,9.449,2.114
a,126806,0.000,3.041,36.000,3.041,1.934,0.055,0.278,0.611,2.053,9.450,2.119
a,126810,0.000,3.154,36.000,3.154,1.890,0.162,-0.226,0.184,2.160,9.488,2.109
a,126814,0.000,3.266,36.000,3.266,2.461,0.039,-0.424,-0.595,2.097,9.469,2.133
a,126819,0.000,3.378,36.000,3.378,2.021,0.039,0.324,-0.549,2.018,9.404,2.121
a,126822,0.000,3.489,36.000,3.489,2.021,-0.037,-0.043,1.084,2.122,9.479,2.094
a,126826,0.000,3.600,36.000,3.600,2.109,-0.174,-0.287,-0.015,2.097,9.434,2.127
a,126830,0.000,3.711,36.000,3.711,2.461,-0.022,-0.012,-0.778,2.011,9.409,2.105
a,126834,0.000,3.821,36.000,3.821,2.505,-0.006,-0.043,1.039,2.160,9.459,2.132
a,126838,0.000,3.931,36.000,3.931,2.681,-0.373,0.064,1.084,2.088,9.486,2.094
a,126842,0.000,4.040,36.000,4.040,2.769,0.192,-0.012,-0.839,2.084,9.471,2.136
a,126846,0.000,4.149,36.000,4.149,3.208,-0.006,0.156,0.260,2.066,9.477,2.126
a,126850,0.000,4.257,36.000,4.257,3.208,-0.281,-0.043,0.504,2.105,9.436,2.094
a,126855,0.000,4.364,36.000,4.364,3.296,-0.037,-0.134,0.001,2.138,9.451,2.156
a,126858,0.000,4.471,36.000,4.471,3.208,-0.052,0.431,-0.122,2.057,9.458,2.145
a,126862,0.000,4.578,36.000,4.578,3.296,-0.006,0.110,0.565,2.084,9.505,2.116
a,126866,0.000,4.684,36.000,4.684,3.296,0.162,0.217,-0.137,2.116,9.434,2.148
a,126870,0.000,4.789,36.000,4.789,3.384,-0.006,-0.333,0.001,2.072,9.474,2.145
a,126874,0.000,4.894,36.000,4.894,3.428,-0.174,0.217,0.367,2.057,9.463,2.122
a,126879,0.000,4.998,36.000,4.998,3.823,-0.052,0.186,0.596,2.154,9.440,2.096
a,126883,0.000,5.101,36.000,5.101,3.911,0.085,-0.058,-0.839,2.125,9.471,2.110
a,126886,0.000,5.204,36.000,5.204,4.043,0.055,-0.043,0.810,2.060,9.425,2.148
a,126890,0.000,5.306,36.000,5.306,4.043,0.055,0.079,-0.320,2.097,9.434,2.109
a,126894,0.000,5.408,36.000,5.408,4.131,-0.006,0.156,-0.167,2.078,9.461,2.109
a,126898,0.000,5.508,36.000,5.508,4.131,0.192,0.095,-1.160,2.063,9.473,2.096
a,126903,0.000,5.608,36.000,5.608,4.131,-0.129,0.003,-1.374,2.089,9.434,2.119
a,126907,0.000,5.707,36.000,5.707,4.131,-0.174,0.049,0.153,2.057,9.475,2.120
a,126910,0.000,5.806,36.000,5.806,4.570,-0.022,-0.226,-0.335,2.154,9.481,2.085
a,126914,0.000,5.903,36.000,5.903,4.746,-0.006,0.095,0.413,2.042,9.495,2.151
a,126919,0.000,6.000,36.000,6.000,4.878,-0.342,-0.058,-0.458,2.116,9.500,2.072
a,126922,0.000,6.096,36.000,6.096,5.229,-0.037,-0.150,1.298,2.103,9.425,2.136
a,126926,0.000,6.191,36.000,6.191,5.273,-0.205,0.034,-2.228,2.008,9.485,2.087
a,126930,0.000,6.286,36.000,6.286,5.317,0.268,0.049,0.397,2.097,9.442,2.133
a,126934,0.000,6.379,36.000,6.379,5.273,-0.220,-0.027,-1.083,2.105,9.482,2.075
a,126938,0.000,6.472,36.000,6.472,5.273,0.055,0.064,0.886,2.042,9.457,2.160
a,126942,0.000,6.564,36.000,6.564,5.273,0.085,0.049,-0.305,2.082,9.438,2.120
a,126946,0.000,6.655,36.000,6.655,5.317,0.055,-0.134,-1.038,2.127,9.474,2.082
a,126950,0.000,6.745,36.000,6.745,5.405,0.100,-0.012,0.077,2.049,9.409,2.114
a,126954,0.000,6.834,36.000,6.834,5.405,0.085,0.095,-0.244,2.060,9.459,2.101
a,126958,0.000,6.922,36.000,6.922,5.493,0.009,0.232,1.191,2.122,9.436,2.085
a,126962,0.000,7.009,36.000,7.009,5.933,-0.174,-0.104,0.657,2.082,9.512,2.127
a,126967,0.000,7.095,36.000,7.095,6.064,0.452,0.354,1.619,2.021,9.481,2.162
a,126970,0.000,7.180,36.000,7.180,6.021,0.192,-0.058,-1.206,2.131,9.487,2.102
a,126974,0.000,7.264,36.000,7.264,6.064,-0.129,-0.287,-1.160,2.107,9.442,2.122
a,126978,0.000,7.347,36.000,7.347,6.021,-0.067,0.263,-1.053,2.029,9.459,2.119
a,126982,0.000,7.429,36.000,7.429,6.021,0.253,-0.058,-1.343,2.125,9.420,2.130
a,126986,0.000,7.510,36.000,7.510,6.064,-0.174,-0.058,0.413,2.107,9.488,2.081
a,126990,0.000,7.590,36.000,7.590,6.064,-0.235,0.217,-0.442,2.039,9.427,2.151
a,126994,0.000,7.669,36.000,7.669,6.064,0.055,0.278,0.825,2.113,9.485,2.103
a,126998,0.000,7.747,36.000,7.747,6.021,-0.052,-0.119,-0.213,2.109,9.432,2.108
a,127003,0.000,7.824,36.000,7.824,6.152,0.039,-0.287,-0.458,2.078,9.455,2.143
a,127007,0.000,7.899,36.000,7.899,6.196,-0.052,0.232,0.550,2.049,9.456,2.119
a,127010,0.000,7.974,36.000,7.974,9.097,0.039,0.263,-0.992,2.094,9.413,2.116
a,127014,0.000,8.047,36.000,8.047,6.284,-0.388,-0.394,0.123,2.179,9.486,2.125
a,127018,0.000,8.119,36.000,8.119,6.680,-0.159,-0.302,0.230,2.047,9.542,2.143
a,127022,0.000,8.190,36.000,8.190,8.086,-0.113,0.461,-1.160,2.073,9.465,2.102
a,127026,0.000,8.260,36.000,8.260,6.855,-0.113,-0.333,0.214,2.168,9.488,2.113
a,127031,0.000,8.328,36.000,8.328,6.987,-0.190,-0.226,-0.824,2.034,9.446,2.091
a,127035,0.000,8.396,36.000,8.396,7.339,-0.022,0.217,-0.335,2.016,9.421,2.161
a,127039,0.000,8.462,36.000,8.462,7.427,0.055,0.156,-0.122,2.168,9.442,2.085
a,127042,0.000,8.527,36.000,8.527,7.427,0.177,-0.379,1.573,2.081,9.459,2.119
a,127046,0.000,8.590,36.000,8.590,7.383,0.055,0.369,0.046,2.004,9.418,2.125
a,127050,0.000,8.653,36.000,8.653,7.471,0.055,0.140,-0.274,2.125,9.442,2.088
a,127054,0.000,8.714,36.000,8.714,7.427,-0.022,-0.119,-0.320,2.096,9.418,2.116
a,127058,0.000,8.774,36.000,8.774,7.471,-0.006,0.049,-0.015,2.027,9.443,2.120
a,127063,0.000,8.832,36.000,8.832,7.515,0.039,0.049,-0.992,2.105,9.456,2.103
a,127066,0.000,8.889,36.000,8.889,7.471,-0.113,0.095,-0.015,2.131,9.459,2.088
a,127071,0.000,8.945,36.000,8.945,7.559,-0.037,-0.043,1.191,2.039,9.436,2.119
a,127075,0.000,9.000,36.000,9.000,7.471,0.055,0.110,0.657,2.058,9.424,2.127
a,127078,0.000,9.053,36.000,9.053,7.471,-0.006,-0.241,-0.320,2.132,9.427,2.097
a,127082,0.000,9.105,36.000,9.105,7.383,-0.403,-0.165,-0.763,2.085,9.470,2.131
a,127086,0.000,9.156,36.000,9.156,7.559,0.009,0.354,-0.167,2.037,9.427,2.115
a,127090,0.000,9.205,36.000,9.205,7.515,-0.037,0.171,1.252,2.132,9.461,2.120
a,127094,0.000,9.252,36.000,9.252,7.559,-0.037,-0.012,0.672,2.169,9.480,2.109
a,127098,0.000,9.299,36.000,9.299,7.603,-0.190,0.217,-0.870,2.016,9.470,2.144
a,127102,0.000,9.344,36.000,9.344,7.603,-0.220,-0.165,0.367,2.113,9.503,2.107
a,127106,0.000,9.387,36.000,9.387,7.646,-0.129,-0.165,-0.717,2.154,9.475,2.113
a,127110,0.000,9.429,36.000,9.429,7.603,-0.052,-0.012,-0.183,2.058,9.428,2.099
a,127115,0.000,9.470,36.000,9.470,7.646,0.268,0.171,0.703,2.076,9.410,2.140
a,127119,0.000,9.509,36.000,9.509,7.646,-0.235,0.095,-0.564,2.148,9.450,2.081
a,127122,0.000,9.547,36.000,9.547,7.690,0.085,-0.394,-0.290,2.073,9.443,2.132
a,127126,0.000,9.584,36.000,9.584,10.151,0.055,0.064,0.550,2.025,9.442,2.127
a,127130,0.000,9.618,36.000,9.618,8.086,-0.281,0.003,0.550,2.137,9.457,2.133
a,127134,0.000,9.652,36.000,9.652,8.130,-0.113,-0.119,0.092,2.103,9.407,2.107
a,127138,0.000,9.684,36.000,9.684,8.218,0.162,0.217,0.397,2.006,9.367,2.122
a,127142,0.000,9.714,36.000,9.714,8.218,0.085,0.156,-1.068,2.113,9.485,2.081
a,127146,0.000,9.743,36.000,9.743,8.218,-0.113,-0.302,-0.580,2.172,9.463,2.127
a,127151,0.000,9.771,36.000,9.771,8.306,-0.006,0.278,0.947,1.985,9.462,2.127
a,127155,0.000,9.796,36.000,9.796,8.262,0.116,0.217,0.596,2.115,9.436,2.132
a,127158,0.000,9.821,36.000,9.821,8.218,-0.006,-0.211,0.611,2.168,9.487,2.065
a,127162,0.000,9.844,36.000,9.844,8.262,-0.067,-0.058,-0.458,2.014,9.406,2.125
a,127166,0.000,9.865,36.000,9.865,8.218,0.207,0.431,0.397,2.029,9.461,2.137
a,127170,0.000,9.885,36.000,9.885,8.262,0.207,-0.058,-0.030,2.143,9.428,2.072
a,127174,0.000,9.903,36.000,9.903,8.350,0.100,0.064,0.642,2.069,9.424,2.136
a,127179,0.000,9.920,36.000,9.920,8.262,0.207,0.217,-0.091,2.039,9.436,2.119
a,127183,0.000,9.935,36.000,9.935,8.306,-0.022,0.095,-0.671,2.125,9.452,2.109
a,127186,0.000,9.948,36.000,9.948,8.350,0.100,0.003,0.703,2.072,9.462,2.131
a,127190,0.000,9.960,36.000,9.960,8.262,0.100,0.049,0.031,2.051,9.464,2.132
a,127194,0.000,9.971,36.000,9.971,8.306,0.162,0.263,0.397,2.100,9.452,2.122
a,127198,0.000,9.980,36.000,9.980,8.350,-0.006,-0.104,0.504,2.097,9.461,2.125
a,127202,0.000,9.987,36.000,9.987,8.745,0.207,0.049,0.397,2.051,9.414,2.120
a,127207,0.000,9.993,36.000,9.993,8.394,0.055,0.263,0.153,2.085,9.456,2.109
a,127210,0.000,9.997,36.000,9.997,8.306,0.055,0.064,0.596,2.120,9.467,2.109
a,127215,0.000,9.999,36.000,9.999,8.350,0.162,-0.150,0.184,2.071,9.440,2.097
a,127219,0.000,10.000,36.000,10.000,8.306,0.039,-0.119,-0.824,2.072,9.449,2.113
a,127223,0.000,9.999,36.000,9.999,8.306,0.055,-0.012,-0.213,2.116,9.448,2.112
a,127226,0.000,9.997,36.000,9.997,8.350,0.085,0.049,-0.503,2.094,9.473,2.119
a,127230,0.000,9.993,36.000,9.993,8.350,0.039,-0.165,-0.320,2.069,9.464,2.125
a,127234,0.000,9.987,36.000,9.987,8.394,-0.174,0.095,0.199,2.107,9.459,2.110
a,127238,0.000,9.980,36.000,9.980,8.350,0.177,-0.043,1.237,2.097,9.471,2.109
a,127242,0.000,9.971,36.000,9.971,8.306,-0.129,-0.012,-0.228,2.081,9.431,2.119
a,127246,0.000,9.961,36.000,9.961,8.306,-0.113,0.110,1.054,2.082,9.448,2.079
a,127250,0.000,9.949,36.000,9.949,8.745,-0.129,-0.012,-0.992,2.089,9.442,2.116
a,127254,0.000,9.935,36.000,9.935,8.350,0.070,0.171,1.649,2.082,9.419,2.082
a,127258,0.000,9.920,36.000,9.920,8.350,0.055,0.003,0.764,2.089,9.439,2.125
a,127262,0.000,9.903,36.000,9.903,8.394,-0.006,0.110,0.764,2.082,9.464,2.113
a,127267,0.000,9.885,36.000,9.885,8.394,0.085,-0.058,-0.564,2.045,9.464,2.132
a,127270,0.000,9.865,36.000,9.865,8.350,-0.052,-0.012,-0.183,2.058,9.424,2.120
a,127274,0.000,9.843,36.000,9.843,8.306,-0.067,0.095,-0.458,2.105,9.427,2.142
a,127278,0.000,9.820,36.000,9.820,8.306,-0.067,0.263,-0.946,2.107,9.450,2.122
a,127282,0.000,9.795,36.000,9.795,8.350,0.207,-0.134,-0.946,2.070,9.483,2.087
a,127286,0.000,9.768,36.000,9.768,8.306,0.100,0.049,0.138,2.101,9.443,2.109
a,127290,0.000,9.740,36.000,9.740,8.306,0.100,-0.165,0.031,2.084,9.442,2.110
a,127294,0.000,9.710,36.000,9.710,8.350,-0.235,-0.058,-0.335,2.076,9.434,2.113
a,127298,0.000,9.678,36.000,9.678,8.350,0.162,0.140,-1.206,2.094,9.442,2.093
a,127303,0.000,9.645,36.000,9.645,8.394,-0.113,0.095,-0.015,2.109,9.449,2.099
a,127307,0.000,9.611,36.000,9.611,8.350,-0.190,0.110,-0.335,2.067,9.445,2.120
a,127310,0.000,9.574,36.000,9.574,8.350,0.146,-0.058,-0.473,2.066,9.463,2.139
a,127314,0.000,9.537,36.000,9.537,8.350,0.039,0.324,-0.290,2.122,9.481,2.099
a,127318,0.000,9.497,36.000,9.497,8.350,-0.006,0.095,-0.076,2.084,9.427,2.125
a,127322,0.000,9.456,36.000,9.456,8.350,-0.006,-0.150,0.993,2.091,9.450,2.112
a,127326,0.000,9.413,36.000,9.413,8.394,-0.098,-0.104,1.466,2.066,9.455,2.105
a,127331,0.000,9.369,36.000,9.369,8.350,-0.022,-0.165,-0.503,2.072,9.418,2.125
a,127335,0.000,9.323,36.000,9.323,8.350,0.162,0.217,0.352,2.094,9.469,2.114
a,127338,0.000,9.276,36.000,9.276,8.306,0.055,0.049,-0.076,2.100,9.470,2.126
a,127342,0.000,9.227,36.000,9.227,8.350,-0.129,-0.165,-0.442,2.085,9.457,2.125
a,127346,0.000,9.176,36.000,9.176,8.394,0.162,-0.333,-0.061,2.078,9.448,2.154
a,127350,0.000,9.124,36.000,9.124,8.306,0.055,0.003,0.504,2.094,9.462,2.115
a,127354,0.000,9.070,36.000,9.070,8.306,-0.067,0.049,-0.946,2.076,9.450,2.105
a,127359,0.000,9.015,36.000,9.015,8.350,0.268,0.156,0.184,2.103,9.477,2.101
a,127362,0.000,8.958,36.000,8.958,8.306,-0.235,0.156,-0.442,2.105,9.454,2.113
a,127367,0.000,8.900,36.000,8.900,8.350,-0.067,-0.119,-1.419,2.097,9.470,2.115
a,127371,0.000,8.840,36.000,8.840,8.350,-0.037,-0.150,1.466,2.088,9.475,2.109
a,127374,0.000,8.778,36.000,8.778,8.350,-0.129,-0.058,-1.419,2.057,9.437,2.116
a,127378,0.000,8.715,36.000,8.715,8.218,-0.174,0.232,1.054,2.097,9.464,2.116
a,127382,0.000,8.651,36.000,8.651,8.306,-0.022,-0.104,-0.503,2.077,9.438,2.110
a,127386,0.000,8.585,36.000,8.585,8.306,-0.022,0.003,-0.824,2.097,9.452,2.127
a,127390,0.000,8.517,36.000,8.517,8.306,0.039,0.217,-1.099,2.084,9.470,2.119
a,127394,0.000,8.448,36.000,8.448,8.350,0.055,-0.043,0.489,2.088,9.406,2.109
a,127398,0.000,8.378,36.000,8.378,8.350,-0.006,0.049,0.001,2.084,9.446,2.125
a,127402,0.000,8.306,36.000,8.306,8.350,-0.006,-0.012,0.321,2.097,9.446,2.131
a,127406,0.000,8.233,36.000,8.233,8.394,0.055,-0.043,0.825,2.101,9.458,2.115
a,127411,0.000,8.158,36.000,8.158,8.394,-0.174,0.003,0.932,2.073,9.471,2.119
a,127415,0.000,8.081,36.000,8.081,8.350,0.055,0.095,0.046,2.091,9.450,2.113
a,127418,0.000,8.004,36.000,8.004,8.350,0.055,0.171,0.550,2.109,9.512,2.113
a,127422,0.000,7.925,36.000,7.925,8.306,-0.006,-0.043,0.871,2.088,9.481,2.125
a,127426,0.000,7.844,36.000,7.844,8.306,0.009,0.064,1.268,2.097,9.448,2.112
a,127430,0.000,7.762,36.000,7.762,8.350,-0.052,0.079,0.489,2.097,9.477,2.125
a,127434,0.000,7.679,36.000,7.679,8.350,0.162,-0.211,0.917,2.103,9.427,2.107
a,127438,0.000,7.594,36.000,7.594,8.394,-0.098,-0.043,1.924,2.084,9.418,2.112
a,127442,0.000,7.508,36.000,7.508,8.350,-0.129,0.049,-0.610,2.109,9.486,2.133
a,127446,0.000,7.421,36.000,7.421,8.394,0.055,-0.058,0.199,2.051,9.420,2.142
a,127451,0.000,7.332,36.000,7.332,8.745,0.100,-0.287,0.077,2.127,9.418,2.094
a,127455,0.000,7.242,36.000,7.242,9.097,0.085,0.156,-0.732,2.103,9.416,2.107
a,127458,0.000,7.151,36.000,7.151,8.350,0.207,0.095,-0.183,2.070,9.430,2.106
a,127463,0.000,7.058,36.000,7.058,8.350,0.146,0.217,-1.007,2.042,9.410,2.126
a,127466,0.000,6.964,36.000,6.964,8.262,-0.235,-0.165,-0.320,2.105,9.511,2.103
a,127470,0.000,6.869,36.000,6.869,8.174,0.329,0.324,0.199,2.053,9.415,2.143
a,127474,0.000,6.772,36.000,6.772,8.350,0.207,0.385,0.550,2.069,9.471,2.090
a,127479,0.000,6.674,36.000,6.674,8.086,0.162,0.003,0.794,2.109,9.432,2.148
a,127483,0.000,6.575,36.000,6.575,7.646,-0.220,-0.226,-0.122,2.065,9.414,2.090
a,127487,0.000,6.475,36.000,6.475,7.646,-0.022,0.049,-0.885,2.029,9.445,2.158
a,127490,0.000,6.374,36.000,6.374,7.559,-0.052,0.064,0.596,2.101,9.489,2.119
a,127494,0.000,6.271,36.000,6.271,7.515,-0.190,-0.287,-0.702,2.138,9.487,2.103
a,127498,0.000,6.168,36.000,6.168,8.174,0.100,0.064,0.581,2.041,9.467,2.113
a,127502,0.000,6.063,36.000,6.063,6.987,-0.067,0.049,-1.206,2.084,9.503,2.101
a,127506,0.000,5.957,36.000,5.957,7.690,-0.205,-0.043,1.084,2.143,9.470,2.097
a,127511,0.000,5.849,36.000,5.849,6.812,-0.022,-0.165,-0.458,2.047,9.416,2.139
a,127514,0.000,5.741,36.000,5.741,6.812,-0.220,0.049,-0.076,2.049,9.442,2.063
a,127519,0.000,5.632,36.000,5.632,6.768,0.177,0.140,0.260,2.096,9.440,2.137
a,127523,0.000,5.522,36.000,5.522,6.812,-0.129,-0.165,-0.656,2.089,9.470,2.121
a,127526,0.000,5.410,36.000,5.410,6.768,-0.235,0.049,-0.610,2.103,9.461,2.133
a,127530,0.000,5.298,36.000,5.298,6.724,-0.067,0.003,-0.335,2.107,9.467,2.109
a,127534,0.000,5.184,36.000,5.184,6.724,0.253,0.064,-0.351,2.097,9.445,2.133
a,127538,0.000,5.070,36.000,5.070,6.592,-0.190,-0.012,-0.228,2.116,9.443,2.069
a,127542,0.000,4.954,36.000,4.954,6.328,0.162,0.095,-0.076,2.045,9.450,2.108
a,127546,0.000,4.838,36.000,4.838,6.196,-0.006,0.156,-0.076,2.084,9.492,2.139
a,127550,0.000,4.720,36.000,4.720,7.515,-0.037,0.446,2.001,2.091,9.425,2.132
a,127554,0.000,4.602,36.000,4.602,6.108,-0.067,-0.058,-1.038,2.088,9.367,2.093
a,127558,0.000,4.483,36.000,4.483,7.383,-0.190,-0.119,-0.503,2.049,9.449,2.096
a,127562,0.000,4.363,36.000,4.363,5.977,-0.067,-0.119,-0.656,2.091,9.456,2.115
a,127566,0.000,4.242,36.000,4.242,5.449,-0.174,-0.226,0.153,2.094,9.446,2.090
a,127571,0.000,4.120,36.000,4.120,5.361,0.039,-0.165,-0.335,2.057,9.403,2.101
a,127574,0.000,3.998,36.000,3.998,4.922,-0.006,-0.119,-0.183,2.070,9.492,2.107
a,127578,0.000,3.874,36.000,3.874,4.790,0.055,-0.119,-0.061,2.134,9.491,2.127
a,127582,0.000,3.750,36.000,3.750,4.834,0.146,0.049,-0.244,2.053,9.413,2.148
a,127586,0.000,3.625,36.000,3.625,4.834,0.100,-0.058,0.367,2.045,9.437,2.100
a,127590,0.000,3.499,36.000,3.499,4.878,-0.006,0.186,0.703,2.116,9.402,2.103
a,127594,0.000,3.373,36.000,3.373,4.746,-0.403,-0.287,-0.671,2.122,9.439,2.075
a,127598,0.000,3.246,36.000,3.246,4.790,-0.037,0.232,1.466,2.049,9.457,2.148
a,127603,0.000,3.118,36.000,3.118,4.658,0.100,0.171,0.184,2.085,9.467,2.097
a,127606,0.000,2.990,36.000,2.990,4.614,-0.327,-0.333,0.397,2.152,9.473,2.132
a,127610,0.000,2.861,36.000,2.861,5.229,-0.129,0.049,-0.320,2.066,9.448,2.109
a,127614,0.000,2.731,36.000,2.731,4.131,0.100,-0.043,0.688,2.091,9.475,2.132
a,127618,0.000,2.601,36.000,2.601,4.175,-0.281,-0.119,0.107,2.132,9.437,2.082
a,127622,0.000,2.470,36.000,2.470,4.043,-0.067,-0.379,-0.381,2.071,9.474,2.099
a,127627,0.000,2.339,36.000,2.339,4.043,0.146,0.217,-0.244,2.058,9.398,2.099
a,127631,0.000,2.207,36.000,2.207,3.955,-0.190,-0.150,-0.076,2.118,9.451,2.101
a,127634,0.000,2.075,36.000,2.075,4.043,-0.129,-0.058,-1.206,2.073,9.459,2.127
a,127638,0.000,1.942,36.000,1.942,3.823,0.146,-0.012,-1.175,2.037,9.449,2.120
a,127642,0.000,1.809,36.000,1.809,3.472,-0.129,-0.119,-0.778,2.160,9.421,2.110
a,127646,0.000,1.675,36.000,1.675,3.340,-0.113,-0.165,0.001,2.085,9.443,2.090
a,127650,0.000,1.541,36.000,1.541,3.252,0.055,0.278,0.489,1.982,9.459,2.114
a,127655,0.000,1.407,36.000,1.407,3.208,0.055,0.049,-0.213,2.131,9.501,2.106
a,127659,0.000,1.272,36.000,1.272,3.164,-0.113,-0.211,-0.183,2.114,9.415,2.107
a,127662,0.000,1.137,36.000,1.137,3.120,0.085,-0.211,-0.687,2.045,9.440,2.110
a,127667,0.000,1.002,36.000,1.002,2.725,0.100,0.339,0.489,2.096,9.468,2.145
a,127671,0.000,0.866,36.000,0.866,2.505,-0.220,-0.150,0.932,2.152,9.475,2.101
a,127674,0.000,0.730,36.000,0.730,2.461,-0.022,0.095,-0.503,2.042,9.407,2.107
a,127678,0.000,0.594,36.000,0.594,2.461,-0.006,0.171,0.825,2.054,9.487,2.102
a,127682,0.000,0.458,36.000,0.458,1.978,-0.174,-0.119,0.214,2.199,9.439,2.119
a,127686,0.000,0.321,36.000,0.321,1.934,0.207,-0.058,-0.015,2.039,9.464,2.112
a,127690,0.000,0.185,36.000,0.185,1.890,0.055,0.156,0.306,2.027,9.410,2.132
a,127694,0.000,0.048,36.000,0.048,1.978,0.223,0.171,1.726,2.113,9.461,2.127
a,127698,0.000,-0.089,36.000,-0.089,1.846,-0.037,-0.241,-1.572,2.096,9.461,2.102
a,127702,0.000,-0.226,36.000,-0.226,1.846,-0.022,0.095,-0.335,2.035,9.421,2.114
a,127706,0.000,-0.363,36.000,-0.363,1.802,0.100,0.171,1.023,2.107,9.470,2.116
a,127710,0.000,-0.500,36.000,-0.500,1.670,0.039,-0.165,-0.442,2.119,9.457,2.102
a,127714,0.000,-0.637,36.000,-0.637,1.230,-0.129,-0.226,-0.595,2.039,9.407,2.094
a,127719,0.000,-0.774,36.000,-0.774,1.143,-0.052,0.537,0.153,2.065,9.371,2.143
a,127722,0.000,-0.911,36.000,-0.911,0.703,-0.190,-0.058,-0.977,2.140,9.446,2.094
a,127726,0.000,-1.048,36.000,-1.048,0.703,0.329,0.446,0.626,2.051,9.418,2.110
a,127730,0.000,-1.185,36.000,-1.185,0.527,-0.174,-0.287,-0.015,2.082,9.374,2.126
a,127734,0.000,-1.321,36.000,-1.321,0.439,-0.129,-0.012,-0.824,2.088,9.406,2.136
a,127738,0.000,-1.458,36.000,-1.458,-0.044,0.192,-0.333,-0.335,2.065,9.488,2.090
a,127742,0.000,-1.594,36.000,-1.594,0.000,-0.129,-0.058,-0.442,2.115,9.427,2.180
a,127746,0.000,-1.730,36.000,-1.730,-0.132,-0.052,-0.012,-0.183,2.084,9.521,2.066
a,127751,0.000,-1.866,36.000,-1.866,-0.176,-0.052,-0.012,0.321,2.089,9.464,2.176
a,127755,0.000,-2.001,36.000,-2.001,-0.176,-0.022,0.049,-0.396,2.051,9.507,2.109
a,127759,0.000,-2.136,36.000,-2.136,-0.264,0.085,-0.150,-0.030,2.118,9.386,2.113
a,127762,0.000,-2.271,36.000,-2.271,-0.220,-0.235,-0.012,-0.595,2.073,9.479,2.115
a,127766,0.000,-2.406,36.000,-2.406,-0.176,-0.052,0.064,0.657,2.082,9.421,2.133
a,127770,0.000,-2.540,36.000,-2.540,-0.308,-0.006,0.095,-0.122,2.112,9.443,2.082
a,127774,0.000,-2.674,36.000,-2.674,-0.264,-0.190,-0.333,-1.251,2.101,9.450,2.127
a,127779,0.000,-2.807,36.000,-2.807,-0.791,0.070,0.202,-1.923,2.051,9.425,2.128
a,127783,0.000,-2.940,36.000,-2.940,-0.879,0.085,-0.226,-0.732,2.119,9.456,2.114
a,127787,0.000,-3.072,36.000,-3.072,-0.879,-0.266,0.354,1.359,2.046,9.445,2.133
a,127790,0.000,-3.204,36.000,-3.204,-1.055,0.039,-0.226,-1.328,2.081,9.513,2.122
a,127794,0.000,-3.336,36.000,-3.336,0.703,-0.067,-0.226,-0.290,2.070,9.517,2.113
a,127798,0.000,-3.467,36.000,-3.467,-1.538,-0.113,0.263,0.306,2.058,9.528,2.130
a,127802,0.000,-3.597,36.000,-3.597,-1.450,-0.113,-0.012,-0.213,2.112,9.513,2.128
a,127806,0.000,-3.726,36.000,-3.726,-1.494,-0.190,-0.058,-0.885,2.058,9.434,2.088
a,127811,0.000,-3.855,36.000,-3.855,-1.538,0.100,-0.058,0.031,2.097,9.434,2.096
a,127815,0.000,-3.984,36.000,-3.984,-1.670,0.146,-0.119,-0.305,2.107,9.483,2.103
a,127818,0.000,-4.111,36.000,-4.111,-1.802,-0.098,-0.150,1.268,2.066,9.465,2.134
a,127823,0.000,-4.238,36.000,-4.238,-1.758,-0.006,0.171,0.932,2.085,9.424,2.094
a,127826,0.000,-4.364,36.000,-4.364,-2.197,0.268,-0.165,0.260,2.107,9.439,2.143
a,127830,0.000,-4.490,36.000,-4.490,-2.197,-0.067,-0.226,-0.290,2.125,9.485,2.084
a,127834,0.000,-4.614,36.000,-4.614,-1.055,-0.067,0.064,-0.335,2.045,9.494,2.120
a,127838,0.000,-4.738,36.000,-4.738,-2.329,-0.006,0.263,-0.213,2.084,9.571,2.115
a,127842,0.000,-4.861,36.000,-4.861,-2.329,-0.190,0.095,-0.335,2.160,9.475,2.136
a,127846,0.000,-4.983,36.000,-4.983,-2.461,-0.113,-0.012,0.413,2.041,9.452,2.107
a,127850,0.000,-5.104,36.000,-5.104,-2.900,-0.006,0.049,0.367,2.065,9.424,2.114
a,127854,0.000,-5.225,36.000,-5.225,-2.944,-0.113,0.171,0.947,2.113,9.428,2.058
a,127858,0.000,-5.344,36.000,-5.344,-2.944,-0.129,-0.287,-0.946,2.097,9.406,2.119
a,127862,0.000,-5.462,36.000,-5.462,-3.076,0.039,0.156,-0.458,2.035,9.438,2.151
a,127866,0.000,-5.579,36.000,-5.579,-2.461,0.146,-0.058,-0.519,2.094,9.471,2.063
a,127870,0.000,-5.696,36.000,-5.696,-3.164,0.146,-0.226,-0.412,2.116,9.500,2.136
a,127874,0.000,-5.811,36.000,-5.811,-3.560,-0.022,-0.012,-0.320,2.047,9.442,2.121
a,127878,0.000,-5.925,36.000,-5.925,-3.604,-0.129,0.263,-0.809,2.063,9.450,2.127
a,127883,0.000,-6.038,36.000,-6.038,-3.647,0.009,0.110,1.100,2.101,9.471,2.109
a,127886,0.000,-6.150,36.000,-6.150,-4.307,-0.022,0.049,-0.396,2.057,9.495,2.105
a,127890,0.000,-6.261,36.000,-6.261,-3.867,0.085,0.217,-0.564,2.057,9.479,2.115
a,127894,0.000,-6.370,36.000,-6.370,-3.867,-0.052,0.064,0.672,2.119,9.454,2.106
a,127898,0.000,-6.479,36.000,-6.479,-4.307,0.085,0.217,-0.351,2.072,9.452,2.103
a,127902,0.000,-6.586,36.000,-6.586,-4.395,0.100,0.278,0.642,2.029,9.421,2.101
a,127907,0.000,-6.692,36.000,-6.692,-4.482,-0.113,-0.165,-0.183,2.146,9.463,2.109
a,127911,0.000,-6.796,36.000,-6.796,-4.482,0.055,-0.165,-0.122,2.072,9.416,2.157
a,127914,0.000,-6.900,36.000,-6.900,-4.966,0.039,0.003,-0.015,1.982,9.533,2.105
a,127918,0.000,-7.002,36.000,-7.002,-5.098,0.055,-0.119,0.382,2.221,9.407,2.131
a,127922,0.000,-7.102,36.000,-7.102,-5.229,-0.006,-0.104,0.703,2.037,9.443,2.113
a,127926,0.000,-7.201,36.000,-7.201,-5.229,0.085,-0.119,-1.175,2.023,9.428,2.120
a,127931,0.000,-7.299,36.000,-7.299,-5.186,0.207,0.278,0.657,2.156,9.471,2.125
a,127935,0.000,-7.396,36.000,-7.396,-5.229,0.039,-0.394,-0.320,2.107,9.481,2.051
a,127939,0.000,-7.491,36.000,-7.491,-5.186,0.162,0.217,0.291,2.014,9.428,2.154
a,127942,0.000,-7.584,36.000,-7.584,-5.229,0.100,0.263,0.031,2.085,9.446,2.109
a,127946,0.000,-7.677,36.000,-7.677,-5.142,-0.113,-0.195,0.978,2.089,9.434,2.082
a,127951,0.000,-7.767,36.000,-7.767,-5.317,-0.022,-0.119,-0.396,2.018,9.486,2.167
a,127955,0.000,-7.856,36.000,-7.856,-5.713,0.055,-0.043,0.489,2.127,9.467,2.122
a,127959,0.000,-7.944,36.000,-7.944,-5.801,-0.006,0.049,-0.183,2.088,9.475,2.091
a,127963,0.000,-8.030,36.000,-8.030,-4.395,-0.006,0.156,-0.183,1.982,9.524,2.130
a,127966,0.000,-8.114,36.000,-8.114,-5.977,-0.022,-0.287,-1.206,2.158,9.498,2.130
a,127970,0.000,-8.197,36.000,-8.197,-6.328,0.207,-0.195,0.581,2.079,9.428,2.096
a,127974,0.000,-8.278,36.000,-8.278,-6.021,-0.067,0.049,-0.564,2.016,9.418,2.122
a,127978,0.000,-8.358,36.000,-8.358,-6.416,-0.006,-0.333,0.062,2.156,9.414,2.142
a,127982,0.000,-8.436,36.000,-8.436,-6.372,-0.052,-0.272,-0.183,2.101,9.474,2.065
a,127986,0.000,-8.512,36.000,-8.512,-6.460,0.055,0.324,-0.076,2.047,9.425,2.151
a,127990,0.000,-8.586,36.000,-8.586,-6.460,0.085,0.049,-0.778,2.076,9.457,2.096
a,127994,0.000,-8.659,36.000,-8.659,-6.548,-0.006,-0.043,-0.015,2.148,9.451,2.076
a,127998,0.000,-8.730,36.000,-8.730,-6.548,0.360,0.095,-1.099,2.029,9.432,2.121
a,128002,0.000,-8.799,36.000,-8.799,-6.504,-0.006,0.232,0.489,2.076,9.443,2.114
a,128006,0.000,-8.867,36.000,-8.867,-6.592,-0.281,-0.440,-0.061,2.152,9.477,2.110
a,128010,0.000,-8.932,36.000,-8.932,-6.548,0.177,-0.241,0.153,2.065,9.480,2.151
a,128015,0.000,-8.996,36.000,-8.996,-6.548,0.253,0.232,-0.519,2.079,9.433,2.126
a,128018,0.000,-9.058,36.000,-9.058,-7.075,0.329,0.217,-0.137,2.085,9.438,2.132
a,128022,0.000,-9.118,36.000,-9.118,-7.163,-0.006,-0.272,0.672,2.113,9.448,2.088
a,128026,0.000,-9.177,36.000,-9.177,-7.251,-0.006,0.232,1.039,2.053,9.450,2.127
a,128030,0.000,-9.233,36.000,-9.233,-7.207,0.329,0.263,-0.030,2.034,9.438,2.119
a,128034,0.000,-9.288,36.000,-9.288,-7.251,-0.129,-0.058,-0.396,2.146,9.463,2.084
a,128038,0.000,-9.340,36.000,-9.340,-7.207,-0.220,0.003,0.718,2.065,9.451,2.087
a,128042,0.000,-9.391,36.000,-9.391,-7.207,0.055,0.049,0.428,2.053,9.425,2.125
a,128046,0.000,-9.440,36.000,-9.440,-7.207,0.100,0.217,0.092,2.131,9.444,2.108
a,128051,0.000,-9.487,36.000,-9.487,-7.163,0.192,-0.150,0.031,2.105,9.451,2.097
a,128055,0.000,-9.532,36.000,-9.532,-7.207,0.039,0.171,-0.228,2.040,9.445,2.127
a,128058,0.000,-9.574,36.000,-9.574,-7.207,0.085,-0.119,-0.351,2.116,9.456,2.125
a,128062,0.000,-9.615,36.000,-9.615,-7.207,-0.113,-0.012,-0.076,2.128,9.486,2.110
a,128067,0.000,-9.654,36.000,-9.654,-7.207,-0.449,0.217,-0.228,2.035,9.427,2.154
a,128070,0.000,-9.691,36.000,-9.691,-7.207,-0.220,-0.012,-0.076,2.069,9.418,2.103
a,128074,0.000,-9.726,36.000,-9.726,-7.339,-0.113,-0.058,0.153,2.105,9.428,2.097
a,128078,0.000,-9.759,36.000,-9.759,-7.383,-0.220,-0.119,0.062,2.054,9.398,2.125
a,128083,0.000,-9.790,36.000,-9.790,-7.339,0.055,0.339,0.489,2.070,9.459,2.130
a,128087,0.000,-9.818,36.000,-9.818,-7.383,0.024,-0.241,-2.244,2.143,9.431,2.084
a,128090,0.000,-9.845,36.000,-9.845,-5.273,-0.342,-0.027,-0.030,2.087,9.440,2.107
a,128094,0.000,-9.870,36.000,-9.870,-7.734,-0.052,0.446,0.764,2.010,9.369,2.119
a,128098,0.000,-9.892,36.000,-9.892,-7.778,-0.052,0.339,0.550,2.097,9.445,2.097
a,128102,0.000,-9.912,36.000,-9.912,-7.471,-0.113,-0.150,1.039,2.101,9.418,2.075
a,128106,0.000,-9.931,36.000,-9.931,-7.822,0.055,0.049,-0.183,2.029,9.461,2.133
a,128111,0.000,-9.947,36.000,-9.947,-7.778,-0.113,0.339,-0.122,2.116,9.457,2.126
a,128115,0.000,-9.961,36.000,-9.961,-7.383,-0.113,-0.333,-0.106,2.103,9.449,2.110
a,128118,0.000,-9.973,36.000,-9.973,-7.778,-0.159,0.278,1.146,2.051,9.421,2.143
a,128123,0.000,-9.982,36.000,-9.982,-7.778,0.177,0.064,1.451,2.097,9.446,2.101
a,128127,0.000,-9.990,36.000,-9.990,-7.427,-0.220,-0.104,-0.122,2.114,9.444,2.110
a,128130,0.000,-9.996,36.000,-9.996,-7.822,-0.205,-0.073,-1.587,2.081,9.489,2.161
a,128134,0.000,-9.999,36.000,-9.999,-7.778,0.055,0.049,-0.122,2.084,9.450,2.116
a,128138,0.000,-10.000,36.000,-10.000,-7.822,0.085,0.095,-0.839,2.097,9.457,2.110
a,128142,0.000,-9.999,36.000,-9.999,-7.822,-0.129,-0.012,-0.228,2.084,9.469,2.120
a,128146,0.000,-9.996,36.000,-9.996,-7.778,-0.022,-0.058,-0.442,2.065,9.446,2.084
a,128150,0.000,-9.990,36.000,-9.990,-7.866,-0.022,-0.104,-0.610,2.085,9.437,2.143
a,128154,0.000,-9.983,36.000,-9.983,-7.778,-0.006,0.156,0.153,2.096,9.449,2.096
a,128158,0.000,-9.973,36.000,-9.973,-7.778,-0.052,0.171,0.810,2.091,9.449,2.114
a,128162,0.000,-9.961,36.000,-9.961,-7.822,0.039,0.217,-0.290,2.097,9.463,2.103
a,128167,0.000,-9.947,36.000,-9.947,-7.778,0.009,-0.043,1.191,2.091,9.450,2.091
a,128170,0.000,-9.931,36.000,-9.931,-7.471,0.085,-0.119,-0.351,2.063,9.452,2.119
a,128174,0.000,-9.913,36.000,-9.913,-7.866,0.100,0.064,0.535,2.076,9.443,2.113
a,128178,0.000,-9.892,36.000,-9.892,-7.778,0.039,0.049,-0.228,2.116,9.464,2.132
a,128182,0.000,-9.869,36.000,-9.869,-7.734,-0.006,0.003,0.886,2.072,9.437,2.125
a,128186,0.000,-9.844,36.000,-9.844,-7.822,0.207,0.125,0.581,2.083,9.438,2.097
a,128190,0.000,-9.817,36.000,-9.817,-7.778,-0.220,0.064,0.871,2.101,9.457,2.097
a,128194,0.000,-9.788,36.000,-9.788,-7.778,-0.174,0.156,-0.076,2.112,9.461,2.109
a,128198,0.000,-9.756,36.000,-9.756,-7.778,0.055,0.110,1.039,2.072,9.464,2.133
a,128203,0.000,-9.723,36.000,-9.723,-7.471,0.146,-0.012,-0.305,2.073,9.455,2.125
a,128206,0.000,-9.687,36.000,-9.687,-7.822,-0.113,-0.119,0.199,2.072,9.459,2.107
a,128210,0.000,-9.649,36.000,-9.649,-7.778,-0.022,0.095,-0.610,2.049,9.432,2.120
a,128215,0.000,-9.609,36.000,-9.609,-7.734,-0.159,0.140,-0.061,2.101,9.459,2.109
a,128218,0.000,-9.566,36.000,-9.566,-7.778,0.039,-0.226,-1.038,2.076,9.462,2.116
a,128222,0.000,-9.522,36.000,-9.522,-7.778,-0.342,0.186,1.039,2.091,9.464,2.119
a,128227,0.000,-9.475,36.000,-9.475,-7.778,0.100,0.095,0.031,2.073,9.464,2.127
a,128231,0.000,-9.426,36.000,-9.426,-7.778,0.100,0.064,0.657,2.103,9.448,2.116
a,128235,0.000,-9.375,36.000,-9.375,-7.822,0.100,0.064,0.749,2.066,9.439,2.125
a,128238,0.000,-9.322,36.000,-9.322,-7.778,0.055,-0.012,0.306,2.065,9.455,2.103
a,128242,0.000,-9.267,36.000,-9.267,-7.471,-0.129,0.049,-1.358,2.096,9.470,2.115
a,128246,0.000,-9.210,36.000,-9.210,-7.822,-0.113,-0.012,-0.076,2.076,9.471,2.105
a,128250,0.000,-9.150,36.000,-9.150,-7.427,0.146,0.095,-0.519,2.094,9.421,2.109
a,128254,0.000,-9.089,36.000,-9.089,-7.778,0.162,0.110,0.291,2.071,9.506,2.114
a,128259,0.000,-9.025,36.000,-9.025,-7.471,-0.174,-0.043,0.810,2.103,9.436,2.107
a,128262,0.000,-8.960,36.000,-8.960,-7.427,0.039,0.049,-0.717,2.094,9.450,2.110
a,128266,0.000,-8.892,36.000,-8.892,-7.778,0.039,0.156,-1.038,2.097,9.461,2.102
a,128271,0.000,-8.822,36.000,-8.822,-7.866,-0.022,-0.058,-0.458,2.094,9.450,2.107
a,128274,0.000,-8.751,36.000,-8.751,-7.822,0.146,0.171,-1.282,2.099,9.457,2.127
a,128278,0.000,-8.677,36.000,-8.677,-7.866,-0.022,-0.012,-0.228,2.088,9.467,2.094
a,128282,0.000,-8.601,36.000,-8.601,-7.734,-0.006,0.247,0.657,2.085,9.451,2.119
a,128286,0.000,-8.523,36.000,-8.523,-7.822,-0.144,-0.089,-1.221,2.087,9.464,2.122
a,128290,0.000,-8.443,36.000,-8.443,-7.822,0.253,-0.119,-0.732,2.076,9.452,2.109
a,128294,0.000,-8.362,36.000,-8.362,-7.822,-0.113,0.324,0.153,2.094,9.452,2.127
a,128298,0.000,-8.278,36.000,-8.278,-7.778,0.070,0.079,-0.061,2.084,9.465,2.116
a,128302,0.000,-8.192,36.000,-8.192,-7.822,-0.113,0.171,0.825,2.097,9.446,2.113
a,128306,0.000,-8.105,36.000,-8.105,-7.778,0.100,-0.104,0.581,2.100,9.431,2.114
a,128310,0.000,-8.015,36.000,-8.015,-7.822,-0.022,0.049,-0.595,2.081,9.439,2.113
a,128315,0.000,-7.924,36.000,-7.924,-7.515,-0.052,0.095,0.199,2.094,9.410,2.132
a,128319,0.000,-7.830,36.000,-7.830,-7.471,-0.113,-0.012,0.062,2.089,9.450,2.103
a,128322,0.000,-7.735,36.000,-7.735,-7.822,0.024,-0.134,-1.755,2.088,9.459,2.114
a,128326,0.000,-7.638,36.000,-7.638,-7.866,0.085,0.049,-0.458,2.072,9.428,2.112
a,128330,0.000,-7.539,36.000,-7.539,-7.778,-0.190,-0.058,-0.396,2.082,9.456,2.114
a,128334,0.000,-7.439,36.000,-7.439,-7.778,0.146,-0.226,-0.412,2.089,9.431,2.109
a,128338,0.000,-7.336,36.000,-7.336,-4.395,-0.220,-0.012,0.260,2.100,9.474,2.109
a,128342,0.000,-7.232,36.000,-7.232,-7.778,-0.113,0.171,0.260,2.076,9.471,2.120
a,128346,0.000,-7.126,36.000,-7.126,-7.778,0.055,0.171,-0.015,2.095,9.431,2.105
a,128351,0.000,-7.019,36.000,-7.019,-7.778,0.162,0.064,0.978,2.100,9.401,2.143
a,128355,0.000,-6.909,36.000,-6.909,-7.427,-0.342,0.049,-0.824,2.091,9.456,2.103
a,128358,0.000,-6.798,36.000,-6.798,-7.822,-0.052,-0.058,-0.213,2.088,9.418,2.113
a,128362,0.000,-6.686,36.000,-6.686,-7.778,0.146,0.156,-0.351,2.109,9.439,2.097
a,128366,0.000,-6.572,36.000,-6.572,-7.778,-0.037,-0.012,0.993,2.094,9.388,2.138
a,128370,0.000,-6.456,36.000,-6.456,-7.427,0.162,0.064,0.688,2.039,9.428,2.114
a,128375,0.000,-6.338,36.000,-6.338,-7.339,0.162,-0.104,-0.137,2.114,9.465,2.070
a,128378,0.000,-6.219,36.000,-6.219,-4.570,-0.174,-0.256,0.596,2.085,9.430,2.103
a,128383,0.000,-6.099,36.000,-6.099,-7.339,-0.113,0.064,0.932,2.073,9.461,2.149
a,128387,0.000,-5.977,36.000,-5.977,-7.251,0.055,-0.165,0.382,2.069,9.505,2.132
a,128390,0.000,-5.853,36.000,-5.853,-6.416,0.039,-0.012,-0.824,2.103,9.479,2.099
a,128394,0.000,-5.728,36.000,-5.728,-7.163,0.055,0.171,0.657,2.084,9.457,2.138
a,128398,0.000,-5.602,36.000,-5.602,-7.119,-0.129,0.461,0.581,2.061,9.433,2.136
a,128402,0.000,-5.474,36.000,-5.474,-5.933,0.070,0.171,1.848,2.120,9.483,2.088
a,128406,0.000,-5.345,36.000,-5.345,-6.504,0.055,-0.058,0.046,2.081,9.449,2.122
a,128411,0.000,-5.214,36.000,-5.214,-6.372,-0.006,0.049,-0.122,2.051,9.464,2.139
a,128414,0.000,-5.082,36.000,-5.082,-6.021,0.146,0.095,-1.343,2.094,9.456,2.085
a,128419,0.000,-4.949,36.000,-4.949,-5.977,0.039,-0.119,-1.160,2.096,9.488,2.126
a,128423,0.000,-4.815,36.000,-4.815,-5.845,-0.113,-0.012,0.153,2.031,9.500,2.133
a,128426,0.000,-4.679,36.000,-4.679,-5.713,0.100,-0.211,0.581,2.076,9.457,2.178
a,128430,0.000,-4.542,36.000,-4.542,-5.713,0.116,-0.104,2.062,2.100,9.485,2.094
a,128434,0.000,-4.404,36.000,-4.404,-3.867,-0.251,-0.516,-1.832,2.120,9.473,2.116
a,128438,0.000,-4.265,36.000,-4.265,-5.142,0.345,0.232,1.619,2.057,9.498,2.151
a,128442,0.000,-4.125,36.000,-4.125,-5.054,-0.052,0.018,0.978,2.083,9.494,2.105
a,128446,0.000,-3.983,36.000,-3.983,-4.966,0.162,-0.287,-0.228,2.113,9.427,2.125
a,128450,0.000,-3.841,36.000,-3.841,-4.570,0.085,-0.058,-0.580,2.063,9.427,2.136
a,128454,0.000,-3.697,36.000,-3.697,-4.438,0.024,-0.302,-1.541,2.175,9.455,2.122
a,128458,0.000,-3.553,36.000,-3.553,-4.263,0.116,-0.043,1.802,2.094,9.499,2.096
a,128462,0.000,-3.408,36.000,-3.408,-3.779,0.070,-0.027,-0.641,2.073,9.476,2.130
a,128467,0.000,-3.261,36.000,-3.261,-3.735,-0.220,0.079,1.634,2.110,9.468,2.090
a,128470,0.000,-3.114,36.000,-3.114,-3.647,0.055,0.095,0.367,2.085,9.456,2.126
a,128474,0.000,-2.966,36.000,-2.966,-3.691,0.100,-0.104,0.535,2.070,9.432,2.157
a,128478,0.000,-2.818,36.000,-2.818,-3.604,-0.312,-0.150,1.359,2.119,9.498,2.097
a,128482,0.000,-2.668,36.000,-2.668,-3.560,-0.190,0.171,0.046,2.077,9.501,2.122
a,128486,0.000,-2.518,36.000,-2.518,-3.164,0.268,0.095,-0.030,2.085,9.461,2.133
a,128490,0.000,-2.367,36.000,-2.367,-3.120,0.055,-0.119,0.199,2.112,9.442,2.085
a,128494,0.000,-2.215,36.000,-2.215,-3.032,-0.067,-0.287,-0.503,2.120,9.456,2.094
a,128498,0.000,-2.063,36.000,-2.063,-2.988,-0.067,0.369,-0.671,2.039,9.450,2.162
a,128503,0.000,-1.910,36.000,-1.910,-2.944,0.055,0.079,-0.870,2.105,9.474,2.094
a,128506,0.000,-1.756,36.000,-1.756,-2.461,-0.037,-0.104,1.084,2.115,9.443,2.114
a,128510,0.000,-1.602,36.000,-1.602,-2.373,-0.113,-0.043,0.764,2.031,9.455,2.125
a,128514,0.000,-1.448,36.000,-1.448,-2.329,-0.006,0.095,-0.183,2.120,9.434,2.133
a,128518,0.000,-1.293,36.000,-1.293,-2.241,0.055,-0.058,-0.183,2.112,9.499,2.105
a,128522,0.000,-1.137,36.000,-1.137,-1.846,0.039,-0.104,-0.778,2.122,9.465,2.143
a,128527,0.000,-0.982,36.000,-0.982,-1.626,-0.312,-0.150,-0.824,2.107,9.509,2.101
a,128531,0.000,-0.825,36.000,-0.825,-1.626,-0.006,-0.012,0.275,2.091,9.590,2.109
a,128534,0.000,-0.669,36.000,-0.669,-1.582,0.146,0.049,-0.687,2.094,9.461,2.088
a,128538,0.000,-0.512,36.000,-0.512,-0.264,0.009,0.171,1.084,2.082,9.409,2.110
a,128542,0.000,-0.355,36.000,-0.355,-1.538,0.100,0.110,0.535,2.076,9.483,2.130
a,128546,0.000,-0.198,36.000,-0.198,-1.143,-0.129,0.095,-0.824,2.094,9.471,2.085
a,128550,0.000,-0.041,36.000,-0.041,-1.099,-0.174,-0.012,0.382,2.070,9.432,2.145
a,128555,0.000,0.116,36.000,0.116,-0.835,0.055,0.125,0.550,2.082,9.463,2.090
a,128559,0.000,0.274,36.000,0.274,-0.396,0.055,-0.058,-0.015,2.132,9.428,2.091
a,128562,0.000,0.431,36.000,0.431,-0.308,-0.190,-0.165,-0.610,2.085,9.493,2.099
a,128567,0.000,0.589,36.000,0.589,-0.308,0.055,0.018,0.550,2.089,9.438,2.155
a,128571,0.000,0.746,36.000,0.746,-0.396,-0.022,-0.501,-0.809,2.109,9.483,2.096
a,128574,0.000,0.904,36.000,0.904,-0.264,-0.174,0.049,-0.076,2.089,9.477,2.142
a,128578,0.000,1.061,36.000,1.061,-0.176,-0.037,0.095,0.993,2.065,9.438,2.088
a,128582,0.000,1.218,36.000,1.218,-0.132,-0.037,0.232,1.191,2.113,9.452,2.122
a,128586,0.000,1.375,36.000,1.375,-0.088,-0.190,-0.058,-0.610,2.063,9.421,2.103
a,128590,0.000,1.531,36.000,1.531,3.867,-0.129,-0.333,-0.763,2.089,9.470,2.122
a,128594,0.000,1.688,36.000,1.688,0.527,0.039,0.064,-0.824,2.089,9.498,2.122
a,128598,0.000,1.844,36.000,1.844,0.615,0.055,-0.226,0.413,2.088,9.477,2.114
a,128602,0.000,1.999,36.000,1.999,0.703,-0.067,-0.073,0.535,2.095,9.448,2.120
a,128606,0.000,2.155,36.000,2.155,1.318,0.162,0.156,-0.030,2.042,9.450,2.149
a,128610,0.000,2.309,36.000,2.309,1.714,0.039,0.049,-0.396,2.082,9.436,2.103
a,128615,0.000,2.464,36.000,2.464,1.714,0.085,-0.119,-1.343,2.138,9.469,2.109
a,128619,0.000,2.617,36.000,2.617,1.362,-0.037,0.171,1.420,2.053,9.450,2.120
a,128622,0.000,2.771,36.000,2.771,1.758,0.039,-0.119,-0.610,2.060,9.442,2.120
a,128626,0.000,2.923,36.000,2.923,1.846,-0.052,-0.058,-0.183,2.158,9.450,2.103
a,128630,0.000,3.075,36.000,3.075,3.428,-0.113,-0.165,0.199,2.069,9.493,2.101
a,128634,0.000,3.227,36.000,3.227,2.021,0.146,0.446,-0.427,2.073,9.434,2.126
a,128638,0.000,3.377,36.000,3.377,2.065,-0.006,-0.379,0.794,2.120,9.480,2.125
a,128642,0.000,3.527,36.000,3.527,2.109,-0.022,-0.333,-0.931,2.089,9.450,2.122
a,128646,0.000,3.676,36.000,3.676,2.505,-0.067,-0.012,-0.610,2.034,9.498,2.139
a,128651,0.000,3.824,36.000,3.824,2.637,-0.022,-0.547,-0.809,2.181,9.500,2.122
a,128655,0.000,3.972,36.000,3.972,2.725,-0.190,-0.394,-0.213,2.103,9.582,2.103
a,128658,0.000,4.118,36.000,4.118,3.120,0.207,0.217,0.092,2.023,9.432,2.154
a,128662,0.000,4.263,36.000,4.263,3.120,-0.022,-0.058,-0.290,2.134,9.459,2.107
a,128666,0.000,4.408,36.000,4.408,3.164,-0.052,-0.333,-0.045,2.105,9.489,2.084
a,128670,0.000,4.551,36.000,4.551,2.769,0.284,0.171,1.130,2.022,9.414,2.155
a,128674,0.000,4.694,36.000,4.694,3.208,-0.006,0.537,0.184,2.084,9.459,2.125
a,128679,0.000,4.835,36.000,4.835,3.252,-0.159,0.171,1.481,2.127,9.436,2.069
a,128683,0.000,4.975,36.000,4.975,3.296,0.100,-0.272,0.917,2.065,9.431,2.145
a,128686,0.000,5.114,36.000,5.114,3.384,-0.006,-0.104,-0.183,2.102,9.476,2.109
a,128690,0.000,5.251,36.000,5.251,3.823,-0.067,0.110,-0.671,2.097,9.506,2.114
a,128694,0.000,5.388,36.000,5.388,5.977,-0.052,0.095,0.306,2.105,9.488,2.105
a,128698,0.000,5.523,36.000,5.523,4.043,0.268,0.049,-0.198,2.078,9.464,2.127
a,128702,0.000,5.656,36.000,5.656,4.087,0.146,-0.058,-0.519,2.057,9.436,2.125
a,128707,0.000,5.789,36.000,5.789,4.219,-0.235,-0.394,-1.038,2.166,9.503,2.109
a,128711,0.000,5.919,36.000,5.919,4.790,0.100,0.324,0.291,2.049,9.378,2.099
a,128714,0.000,6.049,36.000,6.049,4.834,-0.006,0.049,-0.183,2.091,9.495,2.110
a,128719,0.000,6.177,36.000,6.177,5.361,-0.052,-0.501,0.275,2.140,9.483,2.114
a,128723,0.000,6.303,36.000,6.303,5.449,-0.006,0.171,-0.122,2.045,9.462,2.096
a,128726,0.000,6.428,36.000,6.428,5.449,0.192,0.156,-0.793,2.081,9.461,2.148
a,128730,0.000,6.551,36.000,6.551,5.405,-0.006,0.064,0.932,2.115,9.456,2.127
a,128734,0.000,6.673,36.000,6.673,5.449,0.039,-0.027,0.184,2.054,9.433,2.110
a,128738,0.000,6.793,36.000,6.793,5.493,0.055,0.156,0.428,2.069,9.450,2.137
a,128742,0.000,6.911,36.000,6.911,5.449,0.039,0.049,-0.228,2.115,9.479,2.114
a,128746,0.000,7.027,36.000,7.027,6.240,0.100,-0.150,-0.198,2.099,9.451,2.122
a,128750,0.000,7.142,36.000,7.142,5.449,0.314,0.049,-0.687,2.016,9.425,2.143
a,128754,0.000,7.255,36.000,7.255,5.625,-0.067,0.095,-1.419,2.097,9.456,2.106
a,128758,0.000,7.366,36.000,7.366,5.977,-0.113,0.003,0.810,2.140,9.438,2.094
a,128762,0.000,7.475,36.000,7.475,5.581,0.162,-0.318,0.550,2.069,9.434,2.109
a,128767,0.000,7.582,36.000,7.582,5.977,0.100,0.171,0.550,2.073,9.439,2.131
a,128770,0.000,7.687,36.000,7.687,5.933,-0.281,0.095,0.153,2.115,9.459,2.116
a,128774,0.000,7.791,36.000,7.791,5.977,-0.052,-0.211,0.978,2.072,9.455,2.101
a,128778,0.000,7.892,36.000,7.892,5.977,-0.037,-0.043,1.084,2.097,9.470,2.126
a,128782,0.000,7.991,36.000,7.991,6.108,-0.067,-0.165,-1.099,2.103,9.546,2.122
a,128786,0.000,8.088,36.000,8.088,5.493,0.100,-0.073,-1.099,2.089,9.509,2.106
a,128790,0.000,8.184,36.000,8.184,6.284,0.100,-0.089,1.130,2.118,9.465,2.107
a,128794,0.000,8.277,36.000,8.277,6.284,0.116,-0.211,1.451,2.101,9.431,2.116
a,128798,0.000,8.367,36.000,8.367,6.680,0.009,0.232,1.298,2.045,9.446,2.109
a,128803,0.000,8.456,36.000,8.456,6.724,0.162,-0.226,0.153,2.105,9.462,2.140
a,128806,0.000,8.542,36.000,8.542,6.768,-0.113,0.003,0.657,2.078,9.459,2.101
a,128810,0.000,8.626,36.000,8.626,6.855,0.085,0.049,-0.244,2.058,9.446,2.133
a,128814,0.000,8.708,36.000,8.708,6.899,0.207,0.049,-0.091,2.060,9.471,2.109
a,128818,0.000,8.788,36.000,8.788,7.339,-0.006,0.110,0.672,2.119,9.428,2.134
a,128822,0.000,8.865,36.000,8.865,7.383,0.055,0.064,0.932,2.088,9.463,2.096
a,128827,0.000,8.940,36.000,8.940,7.427,0.146,0.003,0.397,2.085,9.443,2.132
a,128831,0.000,9.013,36.000,9.013,7.427,0.100,0.064,0.962,2.076,9.469,2.113
a,128835,0.000,9.083,36.000,9.083,7.515,0.223,0.064,1.787,2.137,9.456,2.099
a,128838,0.000,9.151,36.000,9.151,7.471,0.039,0.324,-0.671,2.058,9.463,2.119
a,128842,0.000,9.216,36.000,9.216,7.471,0.039,0.095,-0.992,2.078,9.420,2.113
a,128846,0.000,9.279,36.000,9.279,7.515,0.146,-0.211,-0.305,2.145,9.458,2.096
a,128850,0.000,9.339,36.000,9.339,7.603,0.162,0.125,0.917,2.042,9.473,2.130
a,128854,0.000,9.397,36.000,9.397,7.646,0.360,0.263,-0.961,2.039,9.402,2.120
a,128859,0.000,9.452,36.000,9.452,7.690,-0.067,-0.394,-0.595,2.185,9.513,2.094
a,128863,0.000,9.505,36.000,9.505,7.646,-0.022,0.049,-0.442,2.035,9.451,2.134
a,128866,0.000,9.555,36.000,9.555,9.448,0.100,0.263,-0.091,2.060,9.464,2.114
a,128870,0.000,9.602,36.000,9.602,8.218,-0.174,-0.165,0.168,2.184,9.608,2.096
a,128875,0.000,9.647,36.000,9.647,8.306,-0.220,-0.012,0.306,2.076,9.434,2.096
a,128878,0.000,9.690,36.000,9.690,8.394,0.085,-0.043,-0.687,2.027,9.426,2.157
a,128882,0.000,9.729,36.000,9.729,8.394,0.100,0.049,-0.091,2.132,9.446,2.113
a,128886,0.000,9.767,36.000,9.767,8.789,-0.281,0.064,1.039,2.103,9.446,2.110
a,128890,0.000,9.801,36.000,9.801,8.394,0.085,0.156,-1.282,2.035,9.428,2.136
a,128894,0.000,9.833,36.000,9.833,8.789,-0.113,0.003,0.596,2.101,9.469,2.085
a,128898,0.000,9.862,36.000,9.862,8.745,-0.006,-0.104,1.039,2.115,9.474,2.116
a,128902,0.000,9.888,36.000,9.888,8.789,0.146,-0.012,-0.503,2.069,9.458,2.132
a,128906,0.000,9.911,36.000,9.911,8.789,-0.113,0.049,0.413,2.088,9.481,2.113
a,128910,0.000,9.932,36.000,9.932,8.789,-0.052,-0.165,0.046,2.113,9.443,2.070
a,128914,0.000,9.950,36.000,9.950,8.394,-0.129,-0.150,-0.564,2.087,9.465,2.136
a,128918,0.000,9.965,36.000,9.965,8.745,0.055,0.171,0.657,2.065,9.450,2.110
a,128922,0.000,9.978,36.000,9.978,8.394,-0.190,-0.012,-0.992,2.101,9.483,2.101
a,128926,0.000,9.988,36.000,9.988,8.789,-0.022,-0.287,-0.656,2.089,9.473,2.127
a,128931,0.000,9.995,36.000,9.995,8.833,-0.022,-0.119,-1.038,2.065,9.433,2.121
a,128934,0.000,9.999,36.000,9.999,8.394,0.207,-0.058,-0.122,2.072,9.456,2.113
a,128938,0.000,10.000,36.000,10.000,8.394,-0.006,-0.165,-0.015,2.096,9.481,2.149
a,128942,0.000,9.999,36.000,9.999,8.438,0.024,-0.134,-1.648,2.069,9.413,2.136
a,128946,0.000,9.994,36.000,9.994,8.745,0.055,0.217,0.199,2.082,9.489,2.105
a,128951,0.000,9.987,36.000,9.987,8.789,0.100,0.095,0.031,2.089,9.467,2.138
a,128955,0.000,9.977,36.000,9.977,8.745,0.039,0.003,-0.076,2.058,9.454,2.132
a,128958,0.000,9.964,36.000,9.964,8.789,-0.129,0.156,-0.290,2.088,9.461,2.136
a,128963,0.000,9.949,36.000,9.949,8.350,0.177,-0.104,1.558,2.081,9.510,2.103
a,128966,0.000,9.930,36.000,9.930,8.789,-0.129,0.064,-0.610,2.076,9.449,2.122
a,128970,0.000,9.909,36.000,9.909,8.745,-0.052,0.171,0.504,2.070,9.436,2.116
a,128974,0.000,9.885,36.000,9.885,8.394,-0.220,-0.027,0.489,2.093,9.444,2.105
a,128979,0.000,9.858,36.000,9.858,8.745,-0.388,0.049,-0.015,2.091,9.457,2.119
a,128983,0.000,9.829,36.000,9.829,8.833,0.055,-0.119,-0.076,2.070,9.439,2.133
a,128987,0.000,9.796,36.000,9.796,8.745,0.162,-0.119,0.397,2.060,9.479,2.110
a,128990,0.000,9.761,36.000,9.761,8.789,0.177,0.034,0.260,2.091,9.440,2.108
a,128994,0.000,9.722,36.000,9.722,8.789,0.055,0.095,1.344,2.077,9.464,2.120
a,128998,0.000,9.681,36.000,9.681,8.789,0.085,0.156,-0.900,2.076,9.421,2.105
a,129002,0.000,9.638,36.000,9.638,8.789,-0.327,-0.104,0.810,2.100,9.459,2.136
a,129006,0.000,9.591,36.000,9.591,8.789,0.100,-0.058,0.077,2.076,9.449,2.109
a,129011,0.000,9.542,36.000,9.542,8.833,0.100,-0.012,-0.198,2.076,9.452,2.148
a,129015,0.000,9.490,36.000,9.490,8.833,0.100,-0.058,-0.137,2.105,9.495,2.138
a,129018,0.000,9.435,36.000,9.435,8.789,-0.022,-0.226,-0.228,2.094,9.474,2.091
a,129022,0.000,9.377,36.000,9.377,8.789,0.162,-0.012,0.077,2.072,9.443,2.114
a,129027,0.000,9.317,36.000,9.317,8.833,0.085,0.110,-0.687,2.079,9.422,2.143
a,129030,0.000,9.254,36.000,9.254,8.394,0.100,0.003,0.917,2.085,9.459,2.114
a,129034,0.000,9.188,36.000,9.188,8.789,0.055,-0.165,0.214,2.096,9.451,2.128
a,129038,0.000,9.119,36.000,9.119,8.789,-0.052,0.263,-0.183,2.081,9.461,2.119
a,129042,0.000,9.048,36.000,9.048,8.394,0.039,0.049,-0.290,2.089,9.450,2.107
a,129046,0.000,8.974,36.000,8.974,8.789,0.085,0.156,-0.335,2.084,9.471,2.127
a,129050,0.000,8.897,36.000,8.897,8.789,-0.006,0.049,-0.183,2.084,9.463,2.113
a,129054,0.000,8.818,36.000,8.818,8.394,-0.129,-0.058,-0.992,2.109,9.475,2.107
a,129058,0.000,8.736,36.000,8.736,8.789,0.192,-0.012,-1.221,2.094,9.459,2.105
a,129062,0.000,8.652,36.000,8.652,8.438,0.009,0.110,1.191,2.097,9.459,2.110
a,129066,0.000,8.565,36.000,8.565,8.745,0.085,-0.104,-0.412,2.076,9.455,2.122
a,129070,0.000,8.475,36.000,8.475,8.394,0.009,0.247,0.214,2.100,9.442,2.108
a,129074,0.000,8.383,36.000,8.383,8.789,0.100,0.049,0.245,2.094,9.446,2.119
a,129078,0.000,8.288,36.000,8.288,8.394,0.039,-0.226,-0.809,2.097,9.461,2.125
a,129083,0.000,8.191,36.000,8.191,8.789,0.055,-0.012,0.382,2.078,9.485,2.116
a,129086,0.000,8.091,36.000,8.091,8.745,-0.067,0.156,-0.396,2.081,9.475,2.103
a,129090,0.000,7.989,36.000,7.989,8.394,-0.052,-0.058,0.367,2.078,9.457,2.120
a,129094,0.000,7.885,36.000,7.885,8.701,-0.006,0.049,0.367,2.105,9.446,2.105
a,129098,0.000,7.778,36.000,7.778,8.789,-0.190,0.263,-0.290,2.089,9.481,2.096
a,129102,0.000,7.669,36.000,7.669,8.745,0.100,0.232,0.535,2.065,9.434,2.114
a,129107,0.000,7.557,36.000,7.557,8.789,-0.052,0.385,0.550,2.072,9.457,2.110
a,129111,0.000,7.443,36.000,7.443,8.789,-0.052,0.110,0.596,2.125,9.424,2.096
a,129114,0.000,7.327,36.000,7.327,8.789,-0.190,-0.012,-0.228,2.081,9.495,2.113
a,129118,0.000,7.208,36.000,7.208,8.789,0.085,-0.012,-0.244,2.097,9.457,2.130
a,129122,0.000,7.087,36.000,7.087,9.053,0.207,0.049,0.138,2.070,9.457,2.107
a,129126,0.000,6.964,36.000,6.964,8.394,-0.296,-0.119,-0.290,2.120,9.424,2.127
a,129131,0.000,6.839,36.000,6.839,8.789,0.039,-0.165,-0.717,2.066,9.436,2.138
a,129135,0.000,6.712,36.000,6.712,8.789,-0.098,0.171,2.230,2.058,9.469,2.127
a,129139,0.000,6.583,36.000,6.583,9.448,-0.006,-0.058,0.046,2.085,9.434,2.096
a,129142,0.000,6.452,36.000,6.452,8.262,0.055,-0.027,0.596,2.076,9.437,2.103
a,129146,0.000,6.318,36.000,6.318,8.218,-0.174,0.324,-0.122,2.057,9.498,2.116
a,129150,0.000,6.183,36.000,6.183,10.459,0.024,0.018,-1.114,2.079,9.444,2.125
a,129154,0.000,6.045,36.000,6.045,8.042,0.116,0.064,1.451,2.107,9.396,2.091
a,129158,0.000,5.906,36.000,5.906,7.559,0.055,0.156,-0.015,2.103,9.456,2.120
a,129163,0.000,5.765,36.000,5.765,8.174,-0.113,0.232,0.657,2.070,9.474,2.103
a,129166,0.000,5.622,36.000,5.622,7.383,-0.022,0.156,-0.824,2.088,9.483,2.103
a,129170,0.000,5.477,36.000,5.477,6.724,-0.022,-0.226,-0.228,2.094,9.461,2.109
a,129175,0.000,5.331,36.000,5.331,6.724,0.207,-0.165,0.138,2.029,9.464,2.103
a,129178,0.000,5.183,36.000,5.183,7.559,-0.006,0.110,-0.122,2.105,9.457,2.143
a,129182,0.000,5.033,36.000,5.033,6.240,0.039,-0.547,-0.488,2.150,9.432,2.120
a,129186,0.000,4.881,36.000,4.881,6.284,-0.006,-0.058,0.428,2.037,9.462,2.088
a,129190,0.000,4.728,36.000,4.728,6.943,0.055,0.049,-0.122,2.081,9.409,2.143
a,129194,0.000,4.574,36.000,4.574,6.196,-0.113,-0.119,-0.122,2.152,9.513,2.099
a,129198,0.000,4.417,36.000,4.417,6.108,0.192,-0.333,-0.824,2.029,9.492,2.114
a,129202,0.000,4.260,36.000,4.260,6.064,-0.006,-0.134,0.764,2.054,9.426,2.119
a,129206,0.000,4.101,36.000,4.101,5.977,0.162,-0.150,0.749,2.150,9.481,2.122
a,129210,0.000,3.940,36.000,3.940,5.449,-0.067,-0.501,-0.809,2.076,9.455,2.069
a,129214,0.000,3.779,36.000,3.779,5.317,-0.006,0.095,0.306,2.089,9.445,2.154
a,129219,0.000,3.616,36.000,3.616,5.229,-0.022,0.156,-0.564,2.089,9.445,2.097
a,129222,0.000,3.452,36.000,3.452,4.834,-0.220,0.064,0.718,2.101,9.491,2.106
a,129226,0.000,3.286,36.000,3.286,4.702,-0.022,-0.119,-0.885,2.089,9.489,2.122
a,129230,0.000,3.120,36.000,3.120,4.702,0.055,-0.012,0.260,2.088,9.495,2.094
a,129234,0.000,2.952,36.000,2.952,4.658,0.055,0.049,-0.122,2.103,9.471,2.103
a,129238,0.000,2.784,36.000,2.784,4.570,-0.220,-0.027,0.810,2.099,9.488,2.119
a,129242,0.000,2.614,36.000,2.614,4.087,-0.052,0.110,0.932,2.073,9.457,2.130
a,129246,0.000,2.444,36.000,2.444,4.131,0.024,-0.089,-0.473,2.116,9.462,2.116
a,129250,0.000,2.272,36.000,2.272,3.867,-0.022,-0.058,-0.671,2.091,9.471,2.103
a,129255,0.000,2.100,36.000,2.100,3.999,0.100,0.003,0.352,2.076,9.486,2.148
a,129258,0.000,1.927,36.000,1.927,4.043,-0.006,0.171,0.367,2.097,9.433,2.107
a,129262,0.000,1.754,36.000,1.754,3.428,0.085,-0.226,-0.732,2.115,9.431,2.113
a,129266,0.000,1.580,36.000,1.580,3.340,-0.174,-0.058,0.260,2.070,9.450,2.088
a,129270,0.000,1.405,36.000,1.405,3.252,0.009,0.186,1.359,2.067,9.458,2.094
a,129274,0.000,1.229,36.000,1.229,3.208,-0.235,-0.211,-1.374,2.133,9.483,2.107
a,129279,0.000,1.053,36.000,1.053,3.999,0.039,-0.058,-0.946,2.054,9.449,2.126
a,129283,0.000,0.877,36.000,0.877,2.725,0.146,-0.333,-1.160,2.057,9.442,2.126
a,129286,0.000,0.700,36.000,0.700,2.681,0.177,0.110,1.512,2.094,9.469,2.119
a,129290,0.000,0.523,36.000,0.523,2.505,0.100,-0.211,0.917,2.154,9.449,2.099
a,129294,0.000,0.346,36.000,0.346,1.978,-0.098,0.278,1.146,2.047,9.418,2.113
a,129298,0.000,0.168,36.000,0.168,1.978,-0.052,0.049,-0.122,2.101,9.469,2.082
a,129303,0.000,-0.010,36.000,-0.010,1.846,0.131,-0.134,-1.984,2.069,9.416,2.133
a,129306,0.000,-0.188,36.000,-0.188,1.802,-0.190,-0.256,0.489,2.079,9.432,2.082
a,129311,0.000,-0.366,36.000,-0.366,1.143,-0.129,-0.012,-0.458,2.100,9.392,2.149
a,129315,0.000,-0.544,36.000,-0.544,0.703,-0.067,0.369,-0.396,2.085,9.463,2.130
a,129318,0.000,-0.721,36.000,-0.721,0.615,-0.006,0.003,0.550,2.096,9.485,2.103
a,129322,0.000,-0.899,36.000,-0.899,0.659,-0.113,-0.119,-0.015,2.103,9.485,2.136
a,129326,0.000,-1.077,36.000,-1.077,3.911,-0.190,0.125,0.550,2.082,9.457,2.136
a,129330,0.000,-1.254,36.000,-1.254,0.615,-0.067,0.217,-0.396,2.076,9.471,2.099
a,129334,0.000,-1.431,36.000,-1.431,1.230,-0.067,-0.211,-0.290,2.107,9.481,2.103
a,129338,0.000,-1.608,36.000,-1.608,0.483,0.329,0.156,0.077,2.016,9.443,2.126
a,129342,0.000,-1.784,36.000,-1.784,-0.176,-0.067,-0.165,-1.099,2.105,9.461,2.099
a,129346,0.000,-1.960,36.000,-1.960,-0.220,-0.052,-0.119,0.046,2.120,9.403,2.096
a,129350,0.000,-2.136,36.000,-2.136,-0.264,-0.220,0.232,0.718,2.045,9.448,2.093
a,129354,0.000,-2.311,36.000,-2.311,-0.352,-0.296,-0.226,-0.564,2.138,9.407,2.103
a,129358,0.000,-2.485,36.000,-2.485,-0.747,-0.067,-0.211,-0.015,2.091,9.489,2.096
a,129362,0.000,-2.658,36.000,-2.658,-0.835,-0.220,-0.058,-0.183,2.049,9.442,2.107
a,129367,0.000,-2.831,36.000,-2.831,-0.879,0.100,0.049,0.397,2.070,9.471,2.127
a,129370,0.000,-3.003,36.000,-3.003,-1.055,-0.174,-0.104,0.779,2.127,9.471,2.109
a,129374,0.000,-3.174,36.000,-3.174,-1.450,-0.113,-0.012,0.092,2.060,9.434,2.130
a,129378,0.000,-3.344,36.000,-3.344,-1.450,0.223,0.110,1.283,2.039,9.446,2.119
a,129382,0.000,-3.513,36.000,-3.513,-1.494,-0.052,-0.027,0.703,2.128,9.430,2.125
a,129386,0.000,-3.682,36.000,-3.682,-1.494,0.162,0.095,0.245,2.081,9.400,2.116
a,129390,0.000,-3.849,36.000,-3.849,-1.582,-0.144,-0.104,-0.503,2.036,9.428,2.091
a,129394,0.000,-4.015,36.000,-4.015,-1.758,-0.052,-0.058,-0.106,2.088,9.414,2.119
a,129399,0.000,-4.179,36.000,-4.179,-0.923,0.085,-0.012,-0.458,2.089,9.392,2.090
a,129403,0.000,-4.343,36.000,-4.343,-1.802,-0.342,0.186,0.077,2.124,9.457,2.105
a,129406,0.000,-4.505,36.000,-4.505,-1.011,-0.190,0.156,-0.778,2.035,9.439,2.136
a,129410,0.000,-4.666,36.000,-4.666,-2.197,-0.190,-0.226,-0.671,2.144,9.566,2.116
a,129414,0.000,-4.825,36.000,-4.825,-2.329,-0.190,0.110,-0.335,2.030,9.415,2.167
a,129418,0.000,-4.983,36.000,-4.983,-2.417,0.085,0.049,-0.839,2.049,9.392,2.078
a,129422,0.000,-5.139,36.000,-5.139,-2.856,-0.220,0.186,0.703,2.126,9.457,2.151
a,129426,0.000,-5.294,36.000,-5.294,-2.944,0.162,0.049,0.031,2.042,9.467,2.055
a,129431,0.000,-5.447,36.000,-5.447,-3.076,-0.006,0.079,0.810,2.024,9.487,2.191
a,129435,0.000,-5.599,36.000,-5.599,-3.164,-0.052,-0.165,0.046,2.137,9.425,2.069
a,129438,0.000,-5.748,36.000,-5.748,-3.647,-0.342,-0.165,-1.099,2.100,9.452,2.081
a,129442,0.000,-5.896,36.000,-5.896,-2.417,-0.052,0.492,0.535,1.994,9.436,2.173
a,129446,0.000,-6.042,36.000,-6.042,-4.307,-0.403,-0.394,-0.870,2.206,9.455,2.075
a,129450,0.000,-6.186,36.000,-6.186,-4.438,-0.067,-0.119,-0.564,2.105,9.479,2.101
a,129454,0.000,-6.329,36.000,-6.329,-4.482,0.253,-0.058,-0.900,1.969,9.420,2.148
a,129459,0.000,-6.469,36.000,-6.469,-4.438,0.055,0.003,-0.076,2.151,9.492,2.105
a,129463,0.000,-6.607,36.000,-6.607,-4.482,0.039,-0.440,-0.809,2.134,9.474,2.061
a,129466,0.000,-6.743,36.000,-6.743,-4.482,0.055,0.110,0.092,1.974,9.438,2.157
a,129470,0.000,-6.877,36.000,-6.877,-4.482,-0.098,0.492,1.176,2.122,9.488,2.139
a,129475,0.000,-7.008,36.000,-7.008,-4.438,-0.159,-0.150,1.084,2.143,9.469,2.057
a,129478,0.000,-7.138,36.000,-7.138,-4.482,-0.006,-0.104,0.306,2.036,9.408,2.157
a,129482,0.000,-7.265,36.000,-7.265,-4.570,0.055,0.385,-0.076,2.070,9.451,2.119
